Folder: Bioelectricity-generation-by-Symbiodinium-microadriaticum/Supplementary Fig 4/Fig S4e Surface CV +DCMU

File: CV SURFACE INCUBATED 1.txt
Mar. 7, 2025   14:31:41
Cyclic Voltammetry
File: cv surface incubated 1
Instrument Model:  CHI920C
Ref. Electrode:
Header:
Note:

Init E (V) = -0.5
High E (V) = 0.5
Low E (V) = -0.5
Init P/N = P
Scan Rate (V/s) = 0.05
Segment = 2
Sample Interval (V) = 0.001
Quiet Time (sec) = 10
Sensitivity (A/V) = 1e-8

Results:

Channel 1:
Segment 1:

Segment 2:

Potential/V, Current/A

-0.500, -2.306e-9
-0.493, -2.041e-9
-0.486, -1.918e-9
-0.479, -1.814e-9
-0.472, -1.722e-9
-0.465, -1.635e-9
-0.458, -1.553e-9
-0.451, -1.478e-9
-0.444, -1.403e-9
-0.437, -1.330e-9
-0.430, -1.261e-9
-0.423, -1.192e-9
-0.416, -1.127e-9
-0.409, -1.063e-9
-0.402, -9.996e-10
-0.395, -9.394e-10
-0.388, -8.779e-10
-0.381, -8.163e-10
-0.374, -7.677e-10
-0.367, -7.107e-10
-0.360, -6.495e-10
-0.353, -5.999e-10
-0.346, -5.456e-10
-0.339, -4.772e-10
-0.332, -4.397e-10
-0.325, -3.921e-10
-0.318, -3.456e-10
-0.311, -2.976e-10
-0.304, -2.440e-10
-0.297, -1.956e-10
-0.290, -1.500e-10
-0.283, -1.018e-10
-0.276, -5.639e-11
-0.269, -1.627e-11
-0.262, 2.980e-11
-0.255, 7.024e-11
-0.248, 1.143e-10
-0.241, 1.561e-10
-0.234, 2.061e-10
-0.227, 2.354e-10
-0.220, 2.781e-10
-0.213, 3.163e-10
-0.206, 3.573e-10
-0.199, 3.958e-10
-0.192, 4.347e-10
-0.185, 4.716e-10
-0.178, 5.057e-10
-0.171, 5.439e-10
-0.164, 5.811e-10
-0.157, 6.123e-10
-0.150, 6.576e-10
-0.143, 6.889e-10
-0.136, 7.234e-10
-0.129, 7.576e-10
-0.122, 7.960e-10
-0.115, 8.313e-10
-0.108, 8.657e-10
-0.101, 9.029e-10
-0.094, 9.352e-10
-0.087, 9.668e-10
-0.080, 1.005e-9
-0.073, 1.039e-9
-0.066, 1.075e-9
-0.059, 1.109e-9
-0.052, 1.145e-9
-0.045, 1.178e-9
-0.038, 1.211e-9
-0.031, 1.248e-9
-0.024, 1.285e-9
-0.017, 1.322e-9
-0.010, 1.358e-9
-0.003, 1.393e-9
0.004, 1.430e-9
0.011, 1.467e-9
0.018, 1.505e-9
0.025, 1.544e-9
0.032, 1.584e-9
0.039, 1.623e-9
0.046, 1.662e-9
0.053, 1.702e-9
0.060, 1.744e-9
0.067, 1.783e-9
0.074, 1.826e-9
0.081, 1.868e-9
0.088, 1.909e-9
0.095, 1.956e-9
0.102, 2.002e-9
0.109, 2.047e-9
0.116, 2.094e-9
0.123, 2.144e-9
0.130, 2.198e-9
0.137, 2.248e-9
0.144, 2.301e-9
0.151, 2.356e-9
0.158, 2.409e-9
0.165, 2.465e-9
0.172, 2.521e-9
0.179, 2.579e-9
0.186, 2.645e-9
0.193, 2.681e-9
0.200, 2.747e-9
0.207, 2.803e-9
0.214, 2.853e-9
0.221, 2.919e-9
0.228, 2.976e-9
0.235, 2.990e-9
0.242, 3.051e-9
0.249, 3.123e-9
0.256, 3.173e-9
0.263, 3.224e-9
0.270, 3.275e-9
0.277, 3.327e-9
0.284, 3.376e-9
0.291, 3.425e-9
0.298, 3.472e-9
0.305, 3.520e-9
0.312, 3.572e-9
0.319, 3.619e-9
0.326, 3.667e-9
0.333, 3.713e-9
0.340, 3.759e-9
0.347, 3.805e-9
0.354, 3.849e-9
0.361, 3.897e-9
0.368, 3.942e-9
0.375, 3.987e-9
0.382, 4.037e-9
0.389, 4.087e-9
0.396, 4.134e-9
0.403, 4.184e-9
0.410, 4.228e-9
0.417, 4.286e-9
0.424, 4.337e-9
0.431, 4.387e-9
0.438, 4.435e-9
0.445, 4.485e-9
0.452, 4.535e-9
0.459, 4.588e-9
0.466, 4.639e-9
0.473, 4.693e-9
0.480, 4.747e-9
0.487, 4.807e-9
0.494, 4.863e-9
0.499, 4.691e-9
0.492, 4.159e-9
0.485, 3.826e-9
0.478, 3.557e-9
0.471, 3.329e-9
0.464, 3.122e-9
0.457, 2.940e-9
0.450, 2.769e-9
0.443, 2.613e-9
0.436, 2.467e-9
0.429, 2.326e-9
0.422, 2.196e-9
0.415, 2.072e-9
0.408, 1.953e-9
0.401, 1.834e-9
0.394, 1.722e-9
0.387, 1.613e-9
0.380, 1.508e-9
0.373, 1.405e-9
0.366, 1.307e-9
0.359, 1.210e-9
0.352, 1.116e-9
0.345, 1.024e-9
0.338, 9.324e-10
0.331, 8.463e-10
0.324, 7.600e-10
0.317, 6.774e-10
0.310, 5.974e-10
0.303, 5.167e-10
0.296, 4.406e-10
0.289, 3.674e-10
0.282, 2.951e-10
0.275, 2.259e-10
0.268, 1.617e-10
0.261, 9.800e-11
0.254, 3.869e-11
0.247, -1.923e-11
0.240, -7.463e-11
0.233, -1.262e-10
0.226, -1.741e-10
0.219, -2.204e-10
0.212, -2.643e-10
0.205, -3.044e-10
0.198, -3.448e-10
0.191, -3.819e-10
0.184, -4.189e-10
0.177, -4.539e-10
0.170, -4.870e-10
0.163, -5.199e-10
0.156, -5.526e-10
0.149, -5.846e-10
0.142, -6.170e-10
0.135, -6.499e-10
0.128, -6.840e-10
0.121, -7.183e-10
0.114, -7.535e-10
0.107, -7.901e-10
0.100, -8.274e-10
0.093, -8.639e-10
0.086, -9.022e-10
0.079, -9.412e-10
0.072, -9.813e-10
0.065, -1.022e-9
0.058, -1.063e-9
0.051, -1.106e-9
0.044, -1.149e-9
0.037, -1.192e-9
0.030, -1.235e-9
0.023, -1.281e-9
0.016, -1.325e-9
0.009, -1.369e-9
0.002, -1.416e-9
-0.005, -1.459e-9
-0.012, -1.504e-9
-0.019, -1.549e-9
-0.026, -1.594e-9
-0.033, -1.640e-9
-0.040, -1.689e-9
-0.047, -1.744e-9
-0.054, -1.786e-9
-0.061, -1.825e-9
-0.068, -1.846e-9
-0.075, -1.852e-9
-0.082, -1.895e-9
-0.089, -1.969e-9
-0.096, -2.022e-9
-0.103, -2.046e-9
-0.110, -2.088e-9
-0.117, -2.127e-9
-0.124, -2.167e-9
-0.131, -2.202e-9
-0.138, -2.241e-9
-0.145, -2.274e-9
-0.152, -2.310e-9
-0.159, -2.347e-9
-0.166, -2.373e-9
-0.173, -2.427e-9
-0.180, -2.462e-9
-0.187, -2.504e-9
-0.194, -2.526e-9
-0.201, -2.586e-9
-0.208, -2.609e-9
-0.215, -2.644e-9
-0.222, -2.688e-9
-0.229, -2.728e-9
-0.236, -2.755e-9
-0.243, -2.785e-9
-0.250, -2.832e-9
-0.257, -2.858e-9
-0.264, -2.904e-9
-0.271, -2.940e-9
-0.278, -2.970e-9
-0.285, -3.008e-9
-0.292, -3.044e-9
-0.299, -3.086e-9
-0.306, -3.113e-9
-0.313, -3.148e-9
-0.320, -3.191e-9
-0.327, -3.231e-9
-0.334, -3.263e-9
-0.341, -3.300e-9
-0.348, -3.332e-9
-0.355, -3.367e-9
-0.362, -3.412e-9
-0.369, -3.448e-9
-0.376, -3.479e-9
-0.383, -3.522e-9
-0.390, -3.561e-9
-0.397, -3.598e-9
-0.404, -3.635e-9
-0.411, -3.674e-9
-0.418, -3.716e-9
-0.425, -3.759e-9
-0.432, -3.794e-9
-0.439, -3.839e-9
-0.446, -3.880e-9
-0.453, -3.921e-9
-0.460, -3.967e-9
-0.467, -4.011e-9
-0.474, -4.052e-9
-0.481, -4.104e-9
-0.488, -4.150e-9
-0.495, -4.198e-9
-0.499, -4.225e-9

File: CV SURFACE INCUBATED 2 .txt
Mar. 7, 2025   14:34:56
Cyclic Voltammetry
File: cv surface incubated 2 .bin
Data Source:  Experiment
Instrument Model:  CHI920C
Ref. Electrode:
Header:
Note:

Init E (V) = -0.5
High E (V) = 0.5
Low E (V) = -0.5
Init P/N = P
Scan Rate (V/s) = 0.05
Segment = 2
Sample Interval (V) = 0.001
Quiet Time (sec) = 10
Sensitivity (A/V) = 1e-8

Results:

Channel 1:
Segment 1:

Segment 2:

Potential/V, Current/A

-0.500, -1.845e-9
-0.493, -1.581e-9
-0.486, -1.464e-9
-0.479, -1.365e-9
-0.472, -1.277e-9
-0.465, -1.195e-9
-0.458, -1.119e-9
-0.451, -1.045e-9
-0.444, -9.758e-10
-0.437, -9.081e-10
-0.430, -8.428e-10
-0.423, -7.804e-10
-0.416, -7.180e-10
-0.409, -6.583e-10
-0.402, -5.998e-10
-0.395, -5.427e-10
-0.388, -4.872e-10
-0.381, -4.324e-10
-0.374, -3.799e-10
-0.367, -3.286e-10
-0.360, -2.755e-10
-0.353, -2.266e-10
-0.346, -1.764e-10
-0.339, -1.286e-10
-0.332, -8.068e-11
-0.325, -3.371e-11
-0.318, 1.099e-11
-0.311, 5.624e-11
-0.304, 1.012e-10
-0.297, 1.443e-10
-0.290, 1.858e-10
-0.283, 2.278e-10
-0.276, 2.689e-10
-0.269, 3.102e-10
-0.262, 3.495e-10
-0.255, 3.876e-10
-0.248, 4.283e-10
-0.241, 4.653e-10
-0.234, 5.027e-10
-0.227, 5.394e-10
-0.220, 5.782e-10
-0.213, 6.134e-10
-0.206, 6.492e-10
-0.199, 6.837e-10
-0.192, 7.170e-10
-0.185, 7.527e-10
-0.178, 7.858e-10
-0.171, 8.200e-10
-0.164, 8.522e-10
-0.157, 8.870e-10
-0.150, 9.165e-10
-0.143, 9.525e-10
-0.136, 9.841e-10
-0.129, 1.015e-9
-0.122, 1.047e-9
-0.115, 1.078e-9
-0.108, 1.111e-9
-0.101, 1.145e-9
-0.094, 1.174e-9
-0.087, 1.207e-9
-0.080, 1.237e-9
-0.073, 1.268e-9
-0.066, 1.299e-9
-0.059, 1.331e-9
-0.052, 1.363e-9
-0.045, 1.395e-9
-0.038, 1.426e-9
-0.031, 1.458e-9
-0.024, 1.490e-9
-0.017, 1.523e-9
-0.010, 1.555e-9
-0.003, 1.587e-9
0.004, 1.619e-9
0.011, 1.654e-9
0.018, 1.686e-9
0.025, 1.722e-9
0.032, 1.756e-9
0.039, 1.789e-9
0.046, 1.827e-9
0.053, 1.862e-9
0.060, 1.899e-9
0.067, 1.934e-9
0.074, 1.972e-9
0.081, 2.011e-9
0.088, 2.050e-9
0.095, 2.091e-9
0.102, 2.137e-9
0.109, 2.178e-9
0.116, 2.218e-9
0.123, 2.262e-9
0.130, 2.309e-9
0.137, 2.358e-9
0.144, 2.407e-9
0.151, 2.458e-9
0.158, 2.510e-9
0.165, 2.562e-9
0.172, 2.614e-9
0.179, 2.666e-9
0.186, 2.719e-9
0.193, 2.770e-9
0.200, 2.823e-9
0.207, 2.870e-9
0.214, 2.920e-9
0.221, 2.968e-9
0.228, 3.017e-9
0.235, 3.064e-9
0.242, 3.111e-9
0.249, 3.158e-9
0.256, 3.202e-9
0.263, 3.248e-9
0.270, 3.292e-9
0.277, 3.337e-9
0.284, 3.380e-9
0.291, 3.422e-9
0.298, 3.464e-9
0.305, 3.506e-9
0.312, 3.550e-9
0.319, 3.591e-9
0.326, 3.631e-9
0.333, 3.671e-9
0.340, 3.713e-9
0.347, 3.753e-9
0.354, 3.793e-9
0.361, 3.836e-9
0.368, 3.878e-9
0.375, 3.919e-9
0.382, 3.961e-9
0.389, 4.008e-9
0.396, 4.050e-9
0.403, 4.094e-9
0.410, 4.132e-9
0.417, 4.182e-9
0.424, 4.225e-9
0.431, 4.271e-9
0.438, 4.313e-9
0.445, 4.358e-9
0.452, 4.404e-9
0.459, 4.449e-9
0.466, 4.494e-9
0.473, 4.543e-9
0.480, 4.596e-9
0.487, 4.647e-9
0.494, 4.701e-9
0.499, 4.518e-9
0.492, 4.013e-9
0.485, 3.709e-9
0.478, 3.458e-9
0.471, 3.244e-9
0.464, 3.056e-9
0.457, 2.883e-9
0.450, 2.724e-9
0.443, 2.578e-9
0.436, 2.440e-9
0.429, 2.308e-9
0.422, 2.184e-9
0.415, 2.064e-9
0.408, 1.953e-9
0.401, 1.840e-9
0.394, 1.733e-9
0.387, 1.629e-9
0.380, 1.528e-9
0.373, 1.429e-9
0.366, 1.333e-9
0.359, 1.239e-9
0.352, 1.149e-9
0.345, 1.061e-9
0.338, 9.746e-10
0.331, 8.911e-10
0.324, 8.081e-10
0.317, 7.270e-10
0.310, 6.500e-10
0.303, 5.717e-10
0.296, 4.988e-10
0.289, 4.264e-10
0.282, 3.567e-10
0.275, 2.914e-10
0.268, 2.279e-10
0.261, 1.665e-10
0.254, 1.081e-10
0.247, 5.242e-11
0.240, 8.325e-13
0.233, -4.899e-11
0.226, -9.670e-11
0.219, -1.404e-10
0.212, -1.835e-10
0.205, -2.208e-10
0.198, -2.605e-10
0.191, -2.964e-10
0.184, -3.321e-10
0.177, -3.652e-10
0.170, -3.978e-10
0.163, -4.282e-10
0.156, -4.609e-10
0.149, -4.921e-10
0.142, -5.231e-10
0.135, -5.539e-10
0.128, -5.854e-10
0.121, -6.183e-10
0.114, -6.511e-10
0.107, -6.835e-10
0.100, -7.183e-10
0.093, -7.515e-10
0.086, -7.848e-10
0.079, -8.221e-10
0.072, -8.578e-10
0.065, -8.953e-10
0.058, -9.329e-10
0.051, -9.692e-10
0.044, -1.008e-9
0.037, -1.046e-9
0.030, -1.086e-9
0.023, -1.126e-9
0.016, -1.165e-9
0.009, -1.205e-9
0.002, -1.247e-9
-0.005, -1.286e-9
-0.012, -1.328e-9
-0.019, -1.368e-9
-0.026, -1.410e-9
-0.033, -1.458e-9
-0.040, -1.511e-9
-0.047, -1.570e-9
-0.054, -1.592e-9
-0.061, -1.611e-9
-0.068, -1.675e-9
-0.075, -1.686e-9
-0.082, -1.725e-9
-0.089, -1.766e-9
-0.096, -1.803e-9
-0.103, -1.844e-9
-0.110, -1.877e-9
-0.117, -1.913e-9
-0.124, -1.951e-9
-0.131, -1.988e-9
-0.138, -2.023e-9
-0.145, -2.061e-9
-0.152, -2.098e-9
-0.159, -2.134e-9
-0.166, -2.169e-9
-0.173, -2.205e-9
-0.180, -2.240e-9
-0.187, -2.277e-9
-0.194, -2.312e-9
-0.201, -2.350e-9
-0.208, -2.385e-9
-0.215, -2.420e-9
-0.222, -2.456e-9
-0.229, -2.492e-9
-0.236, -2.527e-9
-0.243, -2.561e-9
-0.250, -2.596e-9
-0.257, -2.629e-9
-0.264, -2.665e-9
-0.271, -2.702e-9
-0.278, -2.737e-9
-0.285, -2.768e-9
-0.292, -2.810e-9
-0.299, -2.841e-9
-0.306, -2.883e-9
-0.313, -2.918e-9
-0.320, -2.953e-9
-0.327, -2.992e-9
-0.334, -3.029e-9
-0.341, -3.067e-9
-0.348, -3.103e-9
-0.355, -3.142e-9
-0.362, -3.175e-9
-0.369, -3.214e-9
-0.376, -3.250e-9
-0.383, -3.290e-9
-0.390, -3.330e-9
-0.397, -3.366e-9
-0.404, -3.407e-9
-0.411, -3.447e-9
-0.418, -3.485e-9
-0.425, -3.526e-9
-0.432, -3.567e-9
-0.439, -3.609e-9
-0.446, -3.653e-9
-0.453, -3.695e-9
-0.460, -3.740e-9
-0.467, -3.785e-9
-0.474, -3.831e-9
-0.481, -3.878e-9
-0.488, -3.925e-9
-0.495, -3.975e-9
-0.499, -4.005e-9

File: CV SURFACE INCUBATED 3 .txt
Mar. 7, 2025   14:36:01
Cyclic Voltammetry
File: cv surface incubated 3 .bin
Data Source:  Experiment
Instrument Model:  CHI920C
Ref. Electrode:
Header:
Note:

Init E (V) = -0.5
High E (V) = 0.5
Low E (V) = -0.5
Init P/N = P
Scan Rate (V/s) = 0.05
Segment = 2
Sample Interval (V) = 0.001
Quiet Time (sec) = 10
Sensitivity (A/V) = 1e-8

Results:

Channel 1:
Segment 1:

Segment 2:

Potential/V, Current/A

-0.500, -1.869e-9
-0.493, -1.604e-9
-0.486, -1.487e-9
-0.479, -1.387e-9
-0.472, -1.299e-9
-0.465, -1.217e-9
-0.458, -1.139e-9
-0.451, -1.066e-9
-0.444, -9.958e-10
-0.437, -9.285e-10
-0.430, -8.632e-10
-0.423, -7.995e-10
-0.416, -7.390e-10
-0.409, -6.767e-10
-0.402, -6.196e-10
-0.395, -5.613e-10
-0.388, -5.065e-10
-0.381, -4.526e-10
-0.374, -3.999e-10
-0.367, -3.473e-10
-0.360, -2.954e-10
-0.353, -2.464e-10
-0.346, -1.962e-10
-0.339, -1.478e-10
-0.332, -1.011e-10
-0.325, -5.482e-11
-0.318, -9.637e-12
-0.311, 3.499e-11
-0.304, 8.030e-11
-0.297, 1.222e-10
-0.290, 1.654e-10
-0.283, 2.068e-10
-0.276, 2.477e-10
-0.269, 2.878e-10
-0.262, 3.267e-10
-0.255, 3.672e-10
-0.248, 4.050e-10
-0.241, 4.427e-10
-0.234, 4.797e-10
-0.227, 5.172e-10
-0.220, 5.534e-10
-0.213, 5.894e-10
-0.206, 6.244e-10
-0.199, 6.590e-10
-0.192, 6.946e-10
-0.185, 7.308e-10
-0.178, 7.667e-10
-0.171, 7.953e-10
-0.164, 8.275e-10
-0.157, 8.628e-10
-0.150, 8.942e-10
-0.143, 9.247e-10
-0.136, 9.564e-10
-0.129, 9.905e-10
-0.122, 1.021e-9
-0.115, 1.052e-9
-0.108, 1.085e-9
-0.101, 1.118e-9
-0.094, 1.149e-9
-0.087, 1.180e-9
-0.080, 1.216e-9
-0.073, 1.252e-9
-0.066, 1.266e-9
-0.059, 1.299e-9
-0.052, 1.334e-9
-0.045, 1.371e-9
-0.038, 1.399e-9
-0.031, 1.432e-9
-0.024, 1.465e-9
-0.017, 1.497e-9
-0.010, 1.529e-9
-0.003, 1.560e-9
0.004, 1.593e-9
0.011, 1.627e-9
0.018, 1.661e-9
0.025, 1.695e-9
0.032, 1.729e-9
0.039, 1.763e-9
0.046, 1.798e-9
0.053, 1.833e-9
0.060, 1.870e-9
0.067, 1.905e-9
0.074, 1.942e-9
0.081, 1.981e-9
0.088, 2.020e-9
0.095, 2.061e-9
0.102, 2.110e-9
0.109, 2.146e-9
0.116, 2.187e-9
0.123, 2.228e-9
0.130, 2.274e-9
0.137, 2.322e-9
0.144, 2.372e-9
0.151, 2.422e-9
0.158, 2.474e-9
0.165, 2.526e-9
0.172, 2.577e-9
0.179, 2.631e-9
0.186, 2.684e-9
0.193, 2.735e-9
0.200, 2.788e-9
0.207, 2.836e-9
0.214, 2.888e-9
0.221, 2.936e-9
0.228, 2.986e-9
0.235, 3.033e-9
0.242, 3.078e-9
0.249, 3.123e-9
0.256, 3.170e-9
0.263, 3.215e-9
0.270, 3.260e-9
0.277, 3.304e-9
0.284, 3.346e-9
0.291, 3.389e-9
0.298, 3.430e-9
0.305, 3.469e-9
0.312, 3.514e-9
0.319, 3.554e-9
0.326, 3.592e-9
0.333, 3.631e-9
0.340, 3.671e-9
0.347, 3.712e-9
0.354, 3.749e-9
0.361, 3.787e-9
0.368, 3.831e-9
0.375, 3.862e-9
0.382, 3.908e-9
0.389, 3.953e-9
0.396, 3.994e-9
0.403, 4.041e-9
0.410, 4.075e-9
0.417, 4.126e-9
0.424, 4.168e-9
0.431, 4.211e-9
0.438, 4.255e-9
0.445, 4.296e-9
0.452, 4.340e-9
0.459, 4.386e-9
0.466, 4.432e-9
0.473, 4.477e-9
0.480, 4.526e-9
0.487, 4.578e-9
0.494, 4.633e-9
0.499, 4.445e-9
0.492, 3.949e-9
0.485, 3.650e-9
0.478, 3.406e-9
0.471, 3.199e-9
0.464, 3.014e-9
0.457, 2.848e-9
0.450, 2.693e-9
0.443, 2.549e-9
0.436, 2.413e-9
0.429, 2.284e-9
0.422, 2.162e-9
0.415, 2.044e-9
0.408, 1.933e-9
0.401, 1.822e-9
0.394, 1.717e-9
0.387, 1.615e-9
0.380, 1.517e-9
0.373, 1.419e-9
0.366, 1.324e-9
0.359, 1.230e-9
0.352, 1.144e-9
0.345, 1.056e-9
0.338, 9.706e-10
0.331, 8.891e-10
0.324, 8.070e-10
0.317, 7.285e-10
0.310, 6.517e-10
0.303, 5.743e-10
0.296, 5.019e-10
0.289, 4.308e-10
0.282, 3.633e-10
0.275, 2.995e-10
0.268, 2.339e-10
0.261, 1.730e-10
0.254, 1.164e-10
0.247, 6.058e-11
0.240, 1.004e-11
0.233, -3.926e-11
0.226, -8.620e-11
0.219, -1.295e-10
0.212, -1.708e-10
0.205, -2.069e-10
0.198, -2.452e-10
0.191, -2.810e-10
0.184, -3.158e-10
0.177, -3.489e-10
0.170, -3.811e-10
0.163, -4.126e-10
0.156, -4.432e-10
0.149, -4.735e-10
0.142, -5.048e-10
0.135, -5.358e-10
0.128, -5.664e-10
0.121, -5.987e-10
0.114, -6.305e-10
0.107, -6.635e-10
0.100, -6.995e-10
0.093, -7.312e-10
0.086, -7.664e-10
0.079, -8.013e-10
0.072, -8.372e-10
0.065, -8.739e-10
0.058, -9.122e-10
0.051, -9.494e-10
0.044, -9.891e-10
0.037, -1.029e-9
0.030, -1.068e-9
0.023, -1.109e-9
0.016, -1.149e-9
0.009, -1.190e-9
0.002, -1.231e-9
-0.005, -1.272e-9
-0.012, -1.315e-9
-0.019, -1.359e-9
-0.026, -1.405e-9
-0.033, -1.455e-9
-0.040, -1.513e-9
-0.047, -1.557e-9
-0.054, -1.578e-9
-0.061, -1.619e-9
-0.068, -1.646e-9
-0.075, -1.690e-9
-0.082, -1.723e-9
-0.089, -1.763e-9
-0.096, -1.803e-9
-0.103, -1.848e-9
-0.110, -1.884e-9
-0.117, -1.922e-9
-0.124, -1.959e-9
-0.131, -1.996e-9
-0.138, -2.033e-9
-0.145, -2.070e-9
-0.152, -2.108e-9
-0.159, -2.145e-9
-0.166, -2.182e-9
-0.173, -2.219e-9
-0.180, -2.255e-9
-0.187, -2.292e-9
-0.194, -2.327e-9
-0.201, -2.363e-9
-0.208, -2.398e-9
-0.215, -2.434e-9
-0.222, -2.470e-9
-0.229, -2.506e-9
-0.236, -2.542e-9
-0.243, -2.577e-9
-0.250, -2.612e-9
-0.257, -2.646e-9
-0.264, -2.683e-9
-0.271, -2.719e-9
-0.278, -2.755e-9
-0.285, -2.791e-9
-0.292, -2.827e-9
-0.299, -2.861e-9
-0.306, -2.897e-9
-0.313, -2.934e-9
-0.320, -2.968e-9
-0.327, -3.005e-9
-0.334, -3.041e-9
-0.341, -3.077e-9
-0.348, -3.113e-9
-0.355, -3.149e-9
-0.362, -3.187e-9
-0.369, -3.226e-9
-0.376, -3.263e-9
-0.383, -3.302e-9
-0.390, -3.340e-9
-0.397, -3.378e-9
-0.404, -3.419e-9
-0.411, -3.458e-9
-0.418, -3.500e-9
-0.425, -3.538e-9
-0.432, -3.580e-9
-0.439, -3.620e-9
-0.446, -3.664e-9
-0.453, -3.709e-9
-0.460, -3.754e-9
-0.467, -3.798e-9
-0.474, -3.843e-9
-0.481, -3.889e-9
-0.488, -3.935e-9
-0.495, -3.982e-9
-0.499, -4.019e-9

File: CV SURFACE INCUBATED 4.txt
Mar. 7, 2025   14:37:04
Cyclic Voltammetry
File: cv surface incubated 4.bin
Data Source:  Experiment
Instrument Model:  CHI920C
Ref. Electrode:
Header:
Note:

Init E (V) = -0.5
High E (V) = 0.5
Low E (V) = -0.5
Init P/N = P
Scan Rate (V/s) = 0.05
Segment = 2
Sample Interval (V) = 0.001
Quiet Time (sec) = 10
Sensitivity (A/V) = 1e-8

Results:

Channel 1:
Segment 1:

Segment 2:

Potential/V, Current/A

-0.500, -1.912e-9
-0.493, -1.647e-9
-0.486, -1.532e-9
-0.479, -1.432e-9
-0.472, -1.344e-9
-0.465, -1.262e-9
-0.458, -1.184e-9
-0.451, -1.113e-9
-0.444, -1.042e-9
-0.437, -9.750e-10
-0.430, -9.104e-10
-0.423, -8.471e-10
-0.416, -7.852e-10
-0.409, -7.259e-10
-0.402, -6.669e-10
-0.395, -6.110e-10
-0.388, -5.554e-10
-0.381, -5.013e-10
-0.374, -4.476e-10
-0.367, -3.950e-10
-0.360, -3.433e-10
-0.353, -2.938e-10
-0.346, -2.457e-10
-0.339, -1.968e-10
-0.332, -1.500e-10
-0.325, -1.037e-10
-0.318, -5.954e-11
-0.311, -1.427e-11
-0.304, 3.120e-11
-0.297, 7.335e-11
-0.290, 1.164e-10
-0.283, 1.571e-10
-0.276, 1.981e-10
-0.269, 2.396e-10
-0.262, 2.778e-10
-0.255, 3.163e-10
-0.248, 3.546e-10
-0.241, 3.926e-10
-0.234, 4.303e-10
-0.227, 4.670e-10
-0.220, 5.031e-10
-0.213, 5.395e-10
-0.206, 5.751e-10
-0.199, 6.094e-10
-0.192, 6.441e-10
-0.185, 6.778e-10
-0.178, 7.140e-10
-0.171, 7.465e-10
-0.164, 7.808e-10
-0.157, 8.145e-10
-0.150, 8.464e-10
-0.143, 8.803e-10
-0.136, 9.125e-10
-0.129, 9.460e-10
-0.122, 9.811e-10
-0.115, 1.011e-9
-0.108, 1.045e-9
-0.101, 1.081e-9
-0.094, 1.113e-9
-0.087, 1.146e-9
-0.080, 1.177e-9
-0.073, 1.205e-9
-0.066, 1.236e-9
-0.059, 1.267e-9
-0.052, 1.302e-9
-0.045, 1.336e-9
-0.038, 1.370e-9
-0.031, 1.404e-9
-0.024, 1.443e-9
-0.017, 1.478e-9
-0.010, 1.506e-9
-0.003, 1.537e-9
0.004, 1.568e-9
0.011, 1.596e-9
0.018, 1.636e-9
0.025, 1.676e-9
0.032, 1.712e-9
0.039, 1.743e-9
0.046, 1.782e-9
0.053, 1.818e-9
0.060, 1.857e-9
0.067, 1.891e-9
0.074, 1.929e-9
0.081, 1.968e-9
0.088, 2.010e-9
0.095, 2.049e-9
0.102, 2.103e-9
0.109, 2.145e-9
0.116, 2.175e-9
0.123, 2.215e-9
0.130, 2.260e-9
0.137, 2.307e-9
0.144, 2.355e-9
0.151, 2.405e-9
0.158, 2.457e-9
0.165, 2.507e-9
0.172, 2.560e-9
0.179, 2.614e-9
0.186, 2.669e-9
0.193, 2.723e-9
0.200, 2.772e-9
0.207, 2.818e-9
0.214, 2.868e-9
0.221, 2.915e-9
0.228, 2.964e-9
0.235, 3.006e-9
0.242, 3.056e-9
0.249, 3.101e-9
0.256, 3.145e-9
0.263, 3.192e-9
0.270, 3.235e-9
0.277, 3.278e-9
0.284, 3.318e-9
0.291, 3.360e-9
0.298, 3.400e-9
0.305, 3.442e-9
0.312, 3.481e-9
0.319, 3.522e-9
0.326, 3.559e-9
0.333, 3.597e-9
0.340, 3.643e-9
0.347, 3.670e-9
0.354, 3.712e-9
0.361, 3.752e-9
0.368, 3.789e-9
0.375, 3.829e-9
0.382, 3.869e-9
0.389, 3.909e-9
0.396, 3.952e-9
0.403, 3.991e-9
0.410, 4.028e-9
0.417, 4.076e-9
0.424, 4.117e-9
0.431, 4.159e-9
0.438, 4.201e-9
0.445, 4.242e-9
0.452, 4.287e-9
0.459, 4.330e-9
0.466, 4.375e-9
0.473, 4.421e-9
0.480, 4.468e-9
0.487, 4.519e-9
0.494, 4.572e-9
0.499, 4.388e-9
0.492, 3.900e-9
0.485, 3.606e-9
0.478, 3.369e-9
0.471, 3.166e-9
0.464, 2.986e-9
0.457, 2.819e-9
0.450, 2.666e-9
0.443, 2.525e-9
0.436, 2.391e-9
0.429, 2.264e-9
0.422, 2.144e-9
0.415, 2.028e-9
0.408, 1.923e-9
0.401, 1.813e-9
0.394, 1.712e-9
0.387, 1.609e-9
0.380, 1.509e-9
0.373, 1.414e-9
0.366, 1.321e-9
0.359, 1.231e-9
0.352, 1.142e-9
0.345, 1.056e-9
0.338, 9.712e-10
0.331, 8.901e-10
0.324, 8.096e-10
0.317, 7.331e-10
0.310, 6.564e-10
0.303, 5.800e-10
0.296, 5.086e-10
0.289, 4.384e-10
0.282, 3.703e-10
0.275, 3.067e-10
0.268, 2.449e-10
0.261, 1.860e-10
0.254, 1.305e-10
0.247, 7.312e-11
0.240, 2.099e-11
0.233, -2.736e-11
0.226, -7.171e-11
0.219, -1.173e-10
0.212, -1.575e-10
0.205, -1.922e-10
0.198, -2.309e-10
0.191, -2.637e-10
0.184, -3.027e-10
0.177, -3.323e-10
0.170, -3.649e-10
0.163, -3.960e-10
0.156, -4.267e-10
0.149, -4.555e-10
0.142, -4.893e-10
0.135, -5.187e-10
0.128, -5.503e-10
0.121, -5.810e-10
0.114, -6.149e-10
0.107, -6.470e-10
0.100, -6.835e-10
0.093, -7.159e-10
0.086, -7.512e-10
0.079, -7.869e-10
0.072, -8.235e-10
0.065, -8.609e-10
0.058, -9.001e-10
0.051, -9.388e-10
0.044, -9.794e-10
0.037, -1.019e-9
0.030, -1.060e-9
0.023, -1.102e-9
0.016, -1.145e-9
0.009, -1.188e-9
0.002, -1.231e-9
-0.005, -1.274e-9
-0.012, -1.319e-9
-0.019, -1.365e-9
-0.026, -1.410e-9
-0.033, -1.462e-9
-0.040, -1.513e-9
-0.047, -1.562e-9
-0.054, -1.602e-9
-0.061, -1.636e-9
-0.068, -1.673e-9
-0.075, -1.706e-9
-0.082, -1.758e-9
-0.089, -1.792e-9
-0.096, -1.830e-9
-0.103, -1.873e-9
-0.110, -1.915e-9
-0.117, -1.952e-9
-0.124, -1.992e-9
-0.131, -2.029e-9
-0.138, -2.072e-9
-0.145, -2.109e-9
-0.152, -2.147e-9
-0.159, -2.190e-9
-0.166, -2.223e-9
-0.173, -2.257e-9
-0.180, -2.303e-9
-0.187, -2.332e-9
-0.194, -2.368e-9
-0.201, -2.403e-9
-0.208, -2.437e-9
-0.215, -2.474e-9
-0.222, -2.510e-9
-0.229, -2.547e-9
-0.236, -2.580e-9
-0.243, -2.610e-9
-0.250, -2.644e-9
-0.257, -2.689e-9
-0.264, -2.730e-9
-0.271, -2.771e-9
-0.278, -2.802e-9
-0.285, -2.835e-9
-0.292, -2.869e-9
-0.299, -2.906e-9
-0.306, -2.943e-9
-0.313, -2.980e-9
-0.320, -3.014e-9
-0.327, -3.052e-9
-0.334, -3.087e-9
-0.341, -3.124e-9
-0.348, -3.160e-9
-0.355, -3.195e-9
-0.362, -3.234e-9
-0.369, -3.273e-9
-0.376, -3.309e-9
-0.383, -3.348e-9
-0.390, -3.384e-9
-0.397, -3.421e-9
-0.404, -3.462e-9
-0.411, -3.500e-9
-0.418, -3.540e-9
-0.425, -3.579e-9
-0.432, -3.622e-9
-0.439, -3.668e-9
-0.446, -3.710e-9
-0.453, -3.752e-9
-0.460, -3.797e-9
-0.467, -3.842e-9
-0.474, -3.885e-9
-0.481, -3.936e-9
-0.488, -3.987e-9
-0.495, -4.038e-9
-0.499, -4.066e-9