Folder: Bioelectricity-generation-by-Symbiodinium-microadriaticum/Supplementary Fig 4/Fig S4d Bulk CVs post incubation

File: CV_dark_incubation_A.txt
Nov. 20, 2024   13:24:22
Cyclic Voltammetry
File: +12 2319-1 fto cv_cells_light_bulk 50 mv s-1.bin
Data Source:  Experiment
Instrument Model:  CHI920C
Ref. Electrode:
Header:
Note:

Init E (V) = -0.5
High E (V) = 0.5
Low E (V) = -0.5
Init P/N = P
Scan Rate (V/s) = 0.05
Segment = 2
Sample Interval (V) = 0.001
Quiet Time (sec) = 10
Sensitivity (A/V) = 1e-7

Results:

Channel 1:
Segment 1:
Ep = -0.139V
ip = 4.953e-10A
Ah = 2.970e-10C

Segment 2:
Ep = -0.093V
ip = -1.022e-9A
Ah = -3.280e-10C

Potential/V, Current/A

-0.500, -4.238e-10
-0.493, -3.726e-10
-0.486, -3.411e-10
-0.479, -3.151e-10
-0.472, -2.858e-10
-0.465, -2.526e-10
-0.458, -2.149e-10
-0.451, -1.884e-10
-0.444, -1.304e-10
-0.437, -1.222e-10
-0.430, -9.130e-11
-0.423, -2.960e-11
-0.416, -5.810e-12
-0.409, 1.495e-11
-0.402, 3.309e-11
-0.395, 5.190e-11
-0.388, 6.058e-11
-0.381, 8.202e-11
-0.374, 1.164e-10
-0.367, 1.197e-10
-0.360, 1.411e-10
-0.353, 1.443e-10
-0.346, 1.635e-10
-0.339, 4.598e-10
-0.332, 3.585e-10
-0.325, 2.479e-10
-0.318, 2.401e-10
-0.311, 2.474e-10
-0.304, 2.666e-10
-0.297, 3.453e-10
-0.290, 3.006e-10
-0.283, 3.060e-10
-0.276, 3.174e-10
-0.269, 3.163e-10
-0.262, 3.264e-10
-0.255, 3.390e-10
-0.248, 3.530e-10
-0.241, 3.532e-10
-0.234, 3.632e-10
-0.227, 3.656e-10
-0.220, 3.980e-10
-0.213, 4.003e-10
-0.206, 4.087e-10
-0.199, 4.079e-10
-0.192, 3.981e-10
-0.185, 4.344e-10
-0.178, 4.463e-10
-0.171, 4.448e-10
-0.164, 4.943e-10
-0.157, 5.582e-10
-0.150, 5.653e-10
-0.143, 5.565e-10
-0.136, 5.622e-10
-0.129, 5.378e-10
-0.122, 5.441e-10
-0.115, 5.526e-10
-0.108, 5.713e-10
-0.101, 5.912e-10
-0.094, 6.132e-10
-0.087, 6.879e-10
-0.080, 6.493e-10
-0.073, 6.550e-10
-0.066, 6.673e-10
-0.059, 6.845e-10
-0.052, 6.867e-10
-0.045, 7.076e-10
-0.038, 7.333e-10
-0.031, 7.437e-10
-0.024, 7.711e-10
-0.017, 8.191e-10
-0.010, 8.314e-10
-0.003, 8.336e-10
0.004, 8.734e-10
0.011, 8.977e-10
0.018, 9.472e-10
0.025, 1.018e-9
0.032, 1.050e-9
0.039, 1.069e-9
0.046, 1.105e-9
0.053, 1.212e-9
0.060, 1.262e-9
0.067, 1.474e-9
0.074, 2.651e-9
0.081, 1.452e-9
0.088, 1.339e-9
0.095, 1.339e-9
0.102, 1.241e-9
0.109, 1.246e-9
0.116, 1.270e-9
0.123, 1.264e-9
0.130, 1.315e-9
0.137, 9.008e-10
0.144, 9.681e-10
0.151, 9.771e-10
0.158, 1.141e-9
0.165, 1.140e-9
0.172, 1.264e-9
0.179, 1.271e-9
0.186, 1.307e-9
0.193, 1.326e-9
0.200, 1.366e-9
0.207, 1.465e-9
0.214, 1.376e-9
0.221, 1.396e-9
0.228, 1.413e-9
0.235, 1.447e-9
0.242, 1.473e-9
0.249, 1.475e-9
0.256, 1.490e-9
0.263, 1.531e-9
0.270, 1.489e-9
0.277, 1.507e-9
0.284, 1.554e-9
0.291, 1.594e-9
0.298, 1.562e-9
0.305, 1.618e-9
0.312, 1.608e-9
0.319, 1.593e-9
0.326, 1.642e-9
0.333, 1.674e-9
0.340, 1.656e-9
0.347, 1.678e-9
0.354, 1.717e-9
0.361, 1.695e-9
0.368, 1.763e-9
0.375, 1.724e-9
0.382, 1.709e-9
0.389, 1.712e-9
0.396, 1.709e-9
0.403, 1.712e-9
0.410, 1.727e-9
0.417, 1.710e-9
0.424, 1.729e-9
0.431, 1.733e-9
0.438, 1.749e-9
0.445, 1.938e-9
0.452, 1.939e-9
0.459, 1.909e-9
0.466, 1.907e-9
0.473, 1.930e-9
0.480, 1.917e-9
0.487, 1.867e-9
0.494, 1.845e-9
0.499, 1.852e-9
0.492, 1.667e-9
0.485, 1.520e-9
0.478, 1.410e-9
0.471, 1.340e-9
0.464, 1.227e-9
0.457, 1.151e-9
0.450, 1.090e-9
0.443, 1.042e-9
0.436, 9.805e-10
0.429, 9.621e-10
0.422, 9.172e-10
0.415, 8.560e-10
0.408, 8.084e-10
0.401, 9.180e-10
0.394, 7.335e-10
0.387, 7.752e-10
0.380, 6.788e-10
0.373, 6.267e-10
0.366, 5.964e-10
0.359, 5.696e-10
0.352, 5.311e-10
0.345, 4.880e-10
0.338, 4.889e-10
0.331, 4.651e-10
0.324, 4.071e-10
0.317, 3.791e-10
0.310, 3.513e-10
0.303, 3.182e-10
0.296, 2.882e-10
0.289, 1.985e-10
0.282, 1.989e-10
0.275, 1.739e-10
0.268, 1.569e-10
0.261, 1.348e-10
0.254, 1.199e-10
0.247, 9.440e-11
0.240, 7.871e-11
0.233, 8.378e-11
0.226, 4.712e-11
0.219, 1.993e-11
0.212, 4.913e-12
0.205, -2.287e-11
0.198, -4.860e-11
0.191, -7.580e-11
0.184, -9.052e-11
0.177, -1.090e-10
0.170, -1.289e-10
0.163, -1.425e-10
0.156, -1.603e-10
0.149, -1.846e-10
0.142, -2.100e-10
0.135, -2.313e-10
0.128, -2.496e-10
0.121, -2.679e-10
0.114, -2.946e-10
0.107, -3.047e-10
0.100, -3.308e-10
0.093, -3.510e-10
0.086, -3.468e-10
0.079, -3.631e-10
0.072, -3.856e-10
0.065, -4.080e-10
0.058, -4.253e-10
0.051, -4.365e-10
0.044, -4.571e-10
0.037, -4.729e-10
0.030, -4.949e-10
0.023, -5.168e-10
0.016, -5.384e-10
0.009, -5.561e-10
0.002, -5.730e-10
-0.005, -5.688e-10
-0.012, -5.970e-10
-0.019, -6.356e-10
-0.026, -6.784e-10
-0.033, -7.102e-10
-0.040, -7.685e-10
-0.047, -8.408e-10
-0.054, -9.109e-10
-0.061, -9.167e-10
-0.068, -7.204e-10
-0.075, -7.184e-10
-0.082, -7.686e-10
-0.089, -8.192e-10
-0.096, -8.172e-10
-0.103, -8.250e-10
-0.110, -8.452e-10
-0.117, -8.178e-10
-0.124, -8.006e-10
-0.131, -8.215e-10
-0.138, -9.244e-10
-0.145, -9.468e-10
-0.152, -9.074e-10
-0.159, -9.304e-10
-0.166, -9.638e-10
-0.173, -9.693e-10
-0.180, -9.486e-10
-0.187, -9.574e-10
-0.194, -9.817e-10
-0.201, -1.010e-9
-0.208, -1.007e-9
-0.215, -1.037e-9
-0.222, -1.056e-9
-0.229, -1.095e-9
-0.236, -1.081e-9
-0.243, -1.079e-9
-0.250, -1.154e-9
-0.257, -1.127e-9
-0.264, -1.130e-9
-0.271, -1.130e-9
-0.278, -1.130e-9
-0.285, -1.135e-9
-0.292, -1.141e-9
-0.299, -1.145e-9
-0.306, -1.150e-9
-0.313, -1.152e-9
-0.320, -1.159e-9
-0.327, -1.161e-9
-0.334, -1.167e-9
-0.341, -1.173e-9
-0.348, -1.176e-9
-0.355, -1.183e-9
-0.362, -1.191e-9
-0.369, -1.199e-9
-0.376, -1.204e-9
-0.383, -1.215e-9
-0.390, -1.225e-9
-0.397, -1.232e-9
-0.404, -1.261e-9
-0.411, -1.266e-9
-0.418, -1.277e-9
-0.425, -1.284e-9
-0.432, -1.294e-9
-0.439, -1.300e-9
-0.446, -1.308e-9
-0.453, -1.318e-9
-0.460, -1.326e-9
-0.467, -1.345e-9
-0.474, -1.353e-9
-0.481, -1.371e-9
-0.488, -1.382e-9
-0.495, -1.398e-9
-0.499, -1.409e-9

File: CV_dark_incubation_B.txt
Nov. 21, 2024   11:39:58
Cyclic Voltammetry
File: +12 2319-1 fto cv_cells_light_bulk 50 mv s-1.bin
Data Source:  Experiment
Instrument Model:  CHI920C
Ref. Electrode:
Header:
Note:

Init E (V) = -0.5
High E (V) = 0.5
Low E (V) = -0.5
Init P/N = P
Scan Rate (V/s) = 0.05
Segment = 2
Sample Interval (V) = 0.001
Quiet Time (sec) = 10
Sensitivity (A/V) = 1e-7

Results:

Channel 1:
Segment 1:
Ep = 0.114V
ip = 7.346e-11A
Ah = 1.032e-10C

Segment 2:

Potential/V, Current/A

-0.500, -2.147e-9
-0.493, -2.012e-9
-0.486, -1.907e-9
-0.479, -1.809e-9
-0.472, -1.716e-9
-0.465, -1.632e-9
-0.458, -1.552e-9
-0.451, -1.467e-9
-0.444, -1.391e-9
-0.437, -1.321e-9
-0.430, -1.254e-9
-0.423, -1.183e-9
-0.416, -1.120e-9
-0.409, -1.064e-9
-0.402, -1.004e-9
-0.395, -9.461e-10
-0.388, -8.947e-10
-0.381, -8.464e-10
-0.374, -8.045e-10
-0.367, -7.582e-10
-0.360, -7.125e-10
-0.353, -6.722e-10
-0.346, -6.328e-10
-0.339, -5.955e-10
-0.332, -5.612e-10
-0.325, -5.224e-10
-0.318, -4.839e-10
-0.311, -4.504e-10
-0.304, -4.178e-10
-0.297, -3.868e-10
-0.290, -3.574e-10
-0.283, -3.313e-10
-0.276, -3.035e-10
-0.269, -2.734e-10
-0.262, -2.425e-10
-0.255, -2.154e-10
-0.248, -1.884e-10
-0.241, -1.636e-10
-0.234, -1.382e-10
-0.227, -1.150e-10
-0.220, -9.189e-11
-0.213, -6.908e-11
-0.206, -4.471e-11
-0.199, -1.780e-11
-0.192, 5.985e-12
-0.185, 3.016e-11
-0.178, 4.966e-11
-0.171, 7.305e-11
-0.164, 9.391e-11
-0.157, 1.149e-10
-0.150, 1.349e-10
-0.143, 1.531e-10
-0.136, 1.708e-10
-0.129, 1.919e-10
-0.122, 2.125e-10
-0.115, 2.335e-10
-0.108, 2.542e-10
-0.101, 2.736e-10
-0.094, 2.913e-10
-0.087, 3.096e-10
-0.080, 3.273e-10
-0.073, 3.449e-10
-0.066, 3.623e-10
-0.059, 3.789e-10
-0.052, 3.945e-10
-0.045, 4.099e-10
-0.038, 4.263e-10
-0.031, 4.447e-10
-0.024, 4.652e-10
-0.017, 4.843e-10
-0.010, 5.019e-10
-0.003, 5.193e-10
0.004, 5.357e-10
0.011, 5.514e-10
0.018, 5.699e-10
0.025, 5.879e-10
0.032, 6.072e-10
0.039, 6.249e-10
0.046, 6.446e-10
0.053, 6.662e-10
0.060, 6.891e-10
0.067, 7.143e-10
0.074, 7.400e-10
0.081, 7.627e-10
0.088, 7.854e-10
0.095, 8.068e-10
0.102, 8.259e-10
0.109, 8.435e-10
0.116, 8.442e-10
0.123, 8.240e-10
0.130, 8.154e-10
0.137, 8.141e-10
0.144, 8.163e-10
0.151, 8.204e-10
0.158, 8.267e-10
0.165, 8.341e-10
0.172, 8.438e-10
0.179, 8.548e-10
0.186, 8.630e-10
0.193, 8.754e-10
0.200, 8.849e-10
0.207, 8.950e-10
0.214, 9.035e-10
0.221, 9.110e-10
0.228, 9.191e-10
0.235, 9.270e-10
0.242, 9.346e-10
0.249, 9.414e-10
0.256, 9.473e-10
0.263, 9.542e-10
0.270, 9.599e-10
0.277, 9.657e-10
0.284, 9.727e-10
0.291, 9.790e-10
0.298, 9.861e-10
0.305, 9.931e-10
0.312, 1.000e-9
0.319, 1.008e-9
0.326, 1.014e-9
0.333, 1.021e-9
0.340, 1.029e-9
0.347, 1.036e-9
0.354, 1.044e-9
0.361, 1.051e-9
0.368, 1.059e-9
0.375, 1.067e-9
0.382, 1.075e-9
0.389, 1.083e-9
0.396, 1.091e-9
0.403, 1.098e-9
0.410, 1.104e-9
0.417, 1.111e-9
0.424, 1.119e-9
0.431, 1.126e-9
0.438, 1.135e-9
0.445, 1.142e-9
0.452, 1.150e-9
0.459, 1.159e-9
0.466, 1.169e-9
0.473, 1.179e-9
0.480, 1.190e-9
0.487, 1.200e-9
0.494, 1.210e-9
0.499, 1.176e-9
0.492, 1.091e-9
0.485, 1.035e-9
0.478, 9.885e-10
0.471, 9.461e-10
0.464, 9.050e-10
0.457, 8.686e-10
0.450, 8.346e-10
0.443, 8.019e-10
0.436, 7.720e-10
0.429, 7.451e-10
0.422, 7.164e-10
0.415, 6.867e-10
0.408, 6.615e-10
0.401, 6.365e-10
0.394, 6.119e-10
0.387, 5.878e-10
0.380, 5.645e-10
0.373, 5.411e-10
0.366, 5.186e-10
0.359, 4.941e-10
0.352, 4.683e-10
0.345, 4.416e-10
0.338, 4.192e-10
0.331, 4.001e-10
0.324, 3.802e-10
0.317, 3.615e-10
0.310, 3.425e-10
0.303, 3.215e-10
0.296, 3.041e-10
0.289, 2.861e-10
0.282, 2.674e-10
0.275, 2.494e-10
0.268, 2.299e-10
0.261, 2.088e-10
0.254, 1.900e-10
0.247, 1.722e-10
0.240, 1.569e-10
0.233, 1.426e-10
0.226, 1.262e-10
0.219, 1.109e-10
0.212, 9.304e-11
0.205, 7.793e-11
0.198, 6.262e-11
0.191, 4.517e-11
0.184, 3.045e-11
0.177, 1.564e-11
0.170, -1.521e-12
0.163, -1.741e-11
0.156, -3.554e-11
0.149, -5.260e-11
0.142, -6.888e-11
0.135, -8.360e-11
0.128, -9.744e-11
0.121, -1.119e-10
0.114, -1.262e-10
0.107, -1.418e-10
0.100, -1.564e-10
0.093, -1.713e-10
0.086, -1.862e-10
0.079, -2.004e-10
0.072, -2.151e-10
0.065, -2.309e-10
0.058, -2.478e-10
0.051, -2.639e-10
0.044, -2.823e-10
0.037, -2.993e-10
0.030, -3.152e-10
0.023, -3.293e-10
0.016, -3.435e-10
0.009, -3.581e-10
0.002, -3.733e-10
-0.005, -3.904e-10
-0.012, -4.090e-10
-0.019, -4.261e-10
-0.026, -4.406e-10
-0.033, -4.559e-10
-0.040, -4.731e-10
-0.047, -4.930e-10
-0.054, -5.123e-10
-0.061, -5.324e-10
-0.068, -5.530e-10
-0.075, -5.704e-10
-0.082, -5.876e-10
-0.089, -6.041e-10
-0.096, -6.227e-10
-0.103, -6.438e-10
-0.110, -6.621e-10
-0.117, -6.826e-10
-0.124, -7.010e-10
-0.131, -7.209e-10
-0.138, -7.413e-10
-0.145, -7.624e-10
-0.152, -7.848e-10
-0.159, -8.048e-10
-0.166, -8.227e-10
-0.173, -8.417e-10
-0.180, -8.608e-10
-0.187, -8.823e-10
-0.194, -9.037e-10
-0.201, -9.240e-10
-0.208, -9.464e-10
-0.215, -9.655e-10
-0.222, -9.901e-10
-0.229, -1.014e-9
-0.236, -1.038e-9
-0.243, -1.062e-9
-0.250, -1.081e-9
-0.257, -1.104e-9
-0.264, -1.125e-9
-0.271, -1.149e-9
-0.278, -1.172e-9
-0.285, -1.194e-9
-0.292, -1.218e-9
-0.299, -1.246e-9
-0.306, -1.275e-9
-0.313, -1.301e-9
-0.320, -1.324e-9
-0.327, -1.348e-9
-0.334, -1.378e-9
-0.341, -1.405e-9
-0.348, -1.433e-9
-0.355, -1.463e-9
-0.362, -1.498e-9
-0.369, -1.533e-9
-0.376, -1.564e-9
-0.383, -1.598e-9
-0.390, -1.634e-9
-0.397, -1.671e-9
-0.404, -1.710e-9
-0.411, -1.756e-9
-0.418, -1.797e-9
-0.425, -1.843e-9
-0.432, -1.892e-9
-0.439, -1.943e-9
-0.446, -1.998e-9
-0.453, -2.051e-9
-0.460, -2.109e-9
-0.467, -2.168e-9
-0.474, -2.230e-9
-0.481, -2.290e-9
-0.488, -2.356e-9
-0.495, -2.421e-9
-0.499, -2.458e-9

File: CV_dark_incubation_C.txt
Nov. 20, 2024   13:25:53
Cyclic Voltammetry
File: +12 2319-1 fto cv_cells_light_bulk 50 mv s-1 (2).bin
Data Source:  Experiment
Instrument Model:  CHI920C
Ref. Electrode:
Header:
Note:

Init E (V) = -0.5
High E (V) = 0.5
Low E (V) = -0.5
Init P/N = P
Scan Rate (V/s) = 0.05
Segment = 2
Sample Interval (V) = 0.001
Quiet Time (sec) = 10
Sensitivity (A/V) = 1e-7

Results:

Channel 1:
Segment 1:
Ep = 0.090V
ip = 7.959e-9A
Ah = 1.491e-9C

Segment 2:
Ep = -0.062V
ip = -5.085e-9A
Ah = -9.741e-10C

Potential/V, Current/A

-0.500, -3.623e-10
-0.493, -2.830e-10
-0.486, -2.478e-10
-0.479, -2.279e-10
-0.472, -2.029e-10
-0.465, -1.824e-10
-0.458, -1.760e-10
-0.451, -1.602e-10
-0.444, -1.523e-10
-0.437, -1.424e-10
-0.430, -1.246e-10
-0.423, -1.096e-10
-0.416, -9.725e-11
-0.409, -8.428e-11
-0.402, -7.395e-11
-0.395, -5.923e-11
-0.388, -6.362e-11
-0.381, -3.964e-11
-0.374, -2.599e-11
-0.367, -2.365e-11
-0.360, -1.439e-11
-0.353, -5.225e-12
-0.346, 8.617e-12
-0.339, 1.798e-11
-0.332, 2.392e-11
-0.325, 3.338e-11
-0.318, 4.469e-11
-0.311, 5.014e-11
-0.304, 5.785e-11
-0.297, 7.052e-11
-0.290, 7.637e-11
-0.283, 8.495e-11
-0.276, 9.703e-11
-0.269, 1.076e-10
-0.262, 1.179e-10
-0.255, 1.271e-10
-0.248, 1.361e-10
-0.241, 1.485e-10
-0.234, 1.584e-10
-0.227, 1.699e-10
-0.220, 1.801e-10
-0.213, 1.914e-10
-0.206, 2.070e-10
-0.199, 2.222e-10
-0.192, 2.356e-10
-0.185, 2.487e-10
-0.178, 2.612e-10
-0.171, 2.738e-10
-0.164, 2.933e-10
-0.157, 3.090e-10
-0.150, 3.247e-10
-0.143, 3.445e-10
-0.136, 3.623e-10
-0.129, 3.711e-10
-0.122, 3.900e-10
-0.115, 4.039e-10
-0.108, 4.212e-10
-0.101, 4.312e-10
-0.094, 4.662e-10
-0.087, 4.902e-10
-0.080, 5.012e-10
-0.073, 5.278e-10
-0.066, 5.425e-10
-0.059, 5.589e-10
-0.052, 5.811e-10
-0.045, 8.903e-10
-0.038, 8.423e-10
-0.031, 8.386e-10
-0.024, 8.512e-10
-0.017, 8.674e-10
-0.010, 8.833e-10
-0.003, 9.070e-10
0.004, 9.314e-10
0.011, 9.536e-10
0.018, 9.805e-10
0.025, 1.006e-9
0.032, 1.029e-9
0.039, 1.070e-9
0.046, 1.102e-9
0.053, 1.150e-9
0.060, 1.217e-9
0.067, 1.273e-9
0.074, 1.424e-9
0.081, 2.471e-9
0.088, 8.499e-9
0.095, 5.036e-9
0.102, 2.268e-9
0.109, 1.482e-9
0.116, 1.365e-9
0.123, 1.366e-9
0.130, 1.385e-9
0.137, 1.401e-9
0.144, 1.411e-9
0.151, 1.427e-9
0.158, 1.468e-9
0.165, 1.482e-9
0.172, 1.496e-9
0.179, 1.583e-9
0.186, 1.704e-9
0.193, 1.739e-9
0.200, 1.773e-9
0.207, 1.782e-9
0.214, 1.820e-9
0.221, 1.846e-9
0.228, 1.859e-9
0.235, 1.851e-9
0.242, 1.845e-9
0.249, 1.858e-9
0.256, 1.865e-9
0.263, 1.886e-9
0.270, 1.886e-9
0.277, 1.907e-9
0.284, 1.970e-9
0.291, 1.983e-9
0.298, 2.022e-9
0.305, 2.003e-9
0.312, 2.035e-9
0.319, 2.055e-9
0.326, 2.113e-9
0.333, 2.127e-9
0.340, 2.127e-9
0.347, 2.132e-9
0.354, 2.157e-9
0.361, 2.181e-9
0.368, 2.201e-9
0.375, 2.214e-9
0.382, 2.224e-9
0.389, 2.234e-9
0.396, 2.265e-9
0.403, 2.291e-9
0.410, 2.312e-9
0.417, 2.368e-9
0.424, 2.399e-9
0.431, 2.411e-9
0.438, 2.431e-9
0.445, 2.454e-9
0.452, 2.477e-9
0.459, 2.504e-9
0.466, 2.543e-9
0.473, 2.587e-9
0.480, 2.597e-9
0.487, 2.610e-9
0.494, 2.635e-9
0.499, 2.579e-9
0.492, 2.391e-9
0.485, 2.426e-9
0.478, 2.353e-9
0.471, 2.243e-9
0.464, 2.155e-9
0.457, 2.055e-9
0.450, 1.980e-9
0.443, 1.919e-9
0.436, 1.836e-9
0.429, 1.761e-9
0.422, 1.699e-9
0.415, 1.629e-9
0.408, 1.581e-9
0.401, 1.529e-9
0.394, 1.470e-9
0.387, 1.416e-9
0.380, 1.354e-9
0.373, 1.311e-9
0.366, 1.250e-9
0.359, 1.202e-9
0.352, 1.149e-9
0.345, 1.109e-9
0.338, 1.068e-9
0.331, 1.016e-9
0.324, 9.712e-10
0.317, 9.270e-10
0.310, 8.809e-10
0.303, 8.331e-10
0.296, 7.855e-10
0.289, 7.442e-10
0.282, 6.996e-10
0.275, 6.575e-10
0.268, 6.178e-10
0.261, 5.797e-10
0.254, 5.362e-10
0.247, 4.949e-10
0.240, 4.467e-10
0.233, 4.051e-10
0.226, 3.681e-10
0.219, 3.274e-10
0.212, 2.837e-10
0.205, 2.446e-10
0.198, 2.034e-10
0.191, 1.643e-10
0.184, 1.258e-10
0.177, 8.690e-11
0.170, 4.625e-11
0.163, 5.498e-12
0.156, -3.759e-11
0.149, -7.863e-11
0.142, -1.161e-10
0.135, -1.538e-10
0.128, -1.906e-10
0.121, -2.275e-10
0.114, -2.693e-10
0.107, -3.080e-10
0.100, -3.433e-10
0.093, -3.765e-10
0.086, -4.149e-10
0.079, -4.515e-10
0.072, -4.922e-10
0.065, -5.316e-10
0.058, -5.642e-10
0.051, -5.955e-10
0.044, -6.304e-10
0.037, -6.648e-10
0.030, -7.006e-10
0.023, -7.398e-10
0.016, -7.851e-10
0.009, -8.249e-10
0.002, -8.768e-10
-0.005, -9.386e-10
-0.012, -1.060e-9
-0.019, -1.245e-9
-0.026, -1.340e-9
-0.033, -1.440e-9
-0.040, -1.453e-9
-0.047, -1.809e-9
-0.054, -2.519e-9
-0.061, -5.473e-9
-0.068, -2.799e-9
-0.075, -1.761e-9
-0.082, -1.202e-9
-0.089, -1.270e-9
-0.096, -1.238e-9
-0.103, -1.291e-9
-0.110, -1.267e-9
-0.117, -1.303e-9
-0.124, -1.310e-9
-0.131, -1.319e-9
-0.138, -1.456e-9
-0.145, -1.343e-9
-0.152, -1.366e-9
-0.159, -1.386e-9
-0.166, -1.402e-9
-0.173, -1.465e-9
-0.180, -1.441e-9
-0.187, -1.458e-9
-0.194, -1.485e-9
-0.201, -1.516e-9
-0.208, -1.541e-9
-0.215, -1.551e-9
-0.222, -1.562e-9
-0.229, -1.589e-9
-0.236, -1.613e-9
-0.243, -1.641e-9
-0.250, -1.661e-9
-0.257, -1.699e-9
-0.264, -1.722e-9
-0.271, -1.748e-9
-0.278, -1.773e-9
-0.285, -1.782e-9
-0.292, -1.801e-9
-0.299, -1.827e-9
-0.306, -1.847e-9
-0.313, -1.876e-9
-0.320, -1.907e-9
-0.327, -1.932e-9
-0.334, -1.959e-9
-0.341, -1.991e-9
-0.348, -2.020e-9
-0.355, -2.047e-9
-0.362, -2.070e-9
-0.369, -2.101e-9
-0.376, -2.129e-9
-0.383, -2.159e-9
-0.390, -2.197e-9
-0.397, -2.226e-9
-0.404, -2.267e-9
-0.411, -2.294e-9
-0.418, -2.319e-9
-0.425, -2.343e-9
-0.432, -2.371e-9
-0.439, -2.396e-9
-0.446, -2.453e-9
-0.453, -2.478e-9
-0.460, -2.504e-9
-0.467, -2.530e-9
-0.474, -2.558e-9
-0.481, -2.581e-9
-0.488, -2.612e-9
-0.495, -2.638e-9
-0.499, -2.653e-9

File: CV_light_incubation_A.csv
Sept. 25, 2024   13:19:09
Cyclic Voltammetry
File: c:\users\secm\desktop\data\lmxlm2\+12 2319-1\25-09-2024\+12 2319-1_fto_light_bulk_cv.csv
Data Source:  Experiment
Instrument Model:  CHI920C
Ref. Electrode:
Header:
Note:

Init E (V) = -0.5
High E (V) = 0.5
Low E (V) = -0.5
Init P/N = P
Scan Rate (V/s) = 0.01
Segment = 2
Sample Interval (V) = 0.001
Quiet Time (sec) = 10
Sensitivity (A/V) = 1e-8

Results:

Channel 1:
Segment 1:
Ep = 0.106V
ip = 7.309e-11A
Ah = 3.075e-10C

Segment 2:

Potential/V, Current/A

-0.500, -1.037e-9
-0.493, -9.788e-10
-0.486, -9.281e-10
-0.479, -8.868e-10
-0.472, -8.515e-10
-0.465, -8.197e-10
-0.458, -7.945e-10
-0.451, -7.677e-10
-0.444, -7.432e-10
-0.437, -7.200e-10
-0.430, -6.980e-10
-0.423, -6.744e-10
-0.416, -6.527e-10
-0.409, -6.291e-10
-0.402, -6.087e-10
-0.395, -5.875e-10
-0.388, -5.597e-10
-0.381, -5.233e-10
-0.374, -4.838e-10
-0.367, -4.259e-10
-0.360, -3.909e-10
-0.353, -3.653e-10
-0.346, -3.410e-10
-0.339, -3.181e-10
-0.332, -3.005e-10
-0.325, -2.837e-10
-0.318, -2.671e-10
-0.311, -2.525e-10
-0.304, -2.386e-10
-0.297, -2.275e-10
-0.290, -2.160e-10
-0.283, -2.045e-10
-0.276, -1.937e-10
-0.269, -1.837e-10
-0.262, -1.745e-10
-0.255, -1.842e-10
-0.248, -1.868e-10
-0.241, -1.763e-10
-0.234, -1.828e-10
-0.227, -1.739e-10
-0.220, -1.627e-10
-0.213, -1.506e-10
-0.206, -1.369e-10
-0.199, -1.276e-10
-0.192, -1.266e-10
-0.185, -1.159e-10
-0.178, -1.063e-10
-0.171, -9.587e-11
-0.164, -8.596e-11
-0.157, -7.674e-11
-0.150, -6.656e-11
-0.143, -5.670e-11
-0.136, -4.692e-11
-0.129, -3.721e-11
-0.122, -2.783e-11
-0.115, -1.769e-11
-0.108, -8.110e-12
-0.101, 2.371e-12
-0.094, 1.189e-11
-0.087, 2.086e-11
-0.080, 3.063e-11
-0.073, 3.942e-11
-0.066, 4.979e-11
-0.059, 5.912e-11
-0.052, 6.831e-11
-0.045, 7.792e-11
-0.038, 8.724e-11
-0.031, 9.712e-11
-0.024, 1.059e-10
-0.017, 1.154e-10
-0.010, 1.255e-10
-0.003, 1.353e-10
0.004, 1.455e-10
0.011, 1.562e-10
0.018, 1.668e-10
0.025, 1.778e-10
0.032, 1.889e-10
0.039, 2.057e-10
0.046, 2.182e-10
0.053, 2.311e-10
0.060, 2.453e-10
0.067, 2.596e-10
0.074, 2.758e-10
0.081, 2.960e-10
0.088, 3.159e-10
0.095, 3.354e-10
0.102, 3.504e-10
0.109, 3.501e-10
0.116, 3.105e-10
0.123, 2.817e-10
0.130, 2.769e-10
0.137, 2.779e-10
0.144, 2.806e-10
0.151, 2.846e-10
0.158, 2.891e-10
0.165, 2.932e-10
0.172, 2.957e-10
0.179, 3.015e-10
0.186, 3.059e-10
0.193, 3.092e-10
0.200, 3.136e-10
0.207, 3.175e-10
0.214, 3.225e-10
0.221, 3.270e-10
0.228, 3.311e-10
0.235, 3.360e-10
0.242, 3.405e-10
0.249, 3.449e-10
0.256, 3.494e-10
0.263, 3.534e-10
0.270, 3.586e-10
0.277, 3.622e-10
0.284, 3.665e-10
0.291, 3.716e-10
0.298, 3.767e-10
0.305, 3.807e-10
0.312, 3.849e-10
0.319, 3.896e-10
0.326, 3.941e-10
0.333, 3.986e-10
0.340, 4.029e-10
0.347, 4.069e-10
0.354, 4.125e-10
0.361, 4.176e-10
0.368, 4.220e-10
0.375, 4.262e-10
0.382, 4.305e-10
0.389, 4.346e-10
0.396, 4.401e-10
0.403, 4.440e-10
0.410, 4.481e-10
0.417, 4.536e-10
0.424, 4.576e-10
0.431, 4.626e-10
0.438, 4.685e-10
0.445, 4.727e-10
0.452, 4.780e-10
0.459, 4.839e-10
0.466, 4.919e-10
0.473, 4.964e-10
0.480, 5.004e-10
0.487, 5.050e-10
0.494, 5.100e-10
0.499, 4.951e-10
0.492, 4.315e-10
0.485, 3.850e-10
0.478, 3.443e-10
0.471, 3.069e-10
0.464, 2.740e-10
0.457, 2.427e-10
0.450, 2.137e-10
0.443, 1.865e-10
0.436, 1.604e-10
0.429, 1.362e-10
0.422, 1.134e-10
0.415, 9.205e-11
0.408, 7.225e-11
0.401, 5.199e-11
0.394, 3.360e-11
0.387, 1.641e-11
0.380, 7.643e-13
0.373, -1.457e-11
0.366, -2.972e-11
0.359, -4.284e-11
0.352, -5.637e-11
0.345, -6.816e-11
0.338, -7.998e-11
0.331, -8.939e-11
0.324, -1.002e-10
0.317, -1.099e-10
0.310, -1.194e-10
0.303, -1.288e-10
0.296, -1.365e-10
0.289, -1.441e-10
0.282, -1.523e-10
0.275, -1.590e-10
0.268, -1.658e-10
0.261, -1.720e-10
0.254, -1.783e-10
0.247, -1.838e-10
0.240, -1.896e-10
0.233, -1.953e-10
0.226, -2.003e-10
0.219, -2.051e-10
0.212, -2.106e-10
0.205, -2.150e-10
0.198, -2.195e-10
0.191, -2.250e-10
0.184, -2.296e-10
0.177, -2.341e-10
0.170, -2.385e-10
0.163, -2.426e-10
0.156, -2.468e-10
0.149, -2.510e-10
0.142, -2.550e-10
0.135, -2.593e-10
0.128, -2.632e-10
0.121, -2.669e-10
0.114, -2.712e-10
0.107, -2.758e-10
0.100, -2.795e-10
0.093, -2.836e-10
0.086, -2.873e-10
0.079, -2.910e-10
0.072, -2.951e-10
0.065, -2.993e-10
0.058, -3.031e-10
0.051, -3.075e-10
0.044, -3.117e-10
0.037, -3.159e-10
0.030, -3.200e-10
0.023, -3.248e-10
0.016, -3.291e-10
0.009, -3.338e-10
0.002, -3.384e-10
-0.005, -3.439e-10
-0.012, -3.489e-10
-0.019, -3.546e-10
-0.026, -3.599e-10
-0.033, -3.647e-10
-0.040, -3.693e-10
-0.047, -3.738e-10
-0.054, -3.775e-10
-0.061, -3.824e-10
-0.068, -3.875e-10
-0.075, -3.933e-10
-0.082, -3.974e-10
-0.089, -4.019e-10
-0.096, -4.062e-10
-0.103, -4.125e-10
-0.110, -4.251e-10
-0.117, -4.294e-10
-0.124, -4.339e-10
-0.131, -4.386e-10
-0.138, -4.429e-10
-0.145, -4.477e-10
-0.152, -4.543e-10
-0.159, -4.588e-10
-0.166, -4.653e-10
-0.173, -4.702e-10
-0.180, -4.750e-10
-0.187, -4.807e-10
-0.194, -4.860e-10
-0.201, -4.919e-10
-0.208, -4.983e-10
-0.215, -5.039e-10
-0.222, -5.104e-10
-0.229, -5.172e-10
-0.236, -5.236e-10
-0.243, -5.303e-10
-0.250, -5.359e-10
-0.257, -5.460e-10
-0.264, -5.535e-10
-0.271, -5.623e-10
-0.278, -5.706e-10
-0.285, -5.779e-10
-0.292, -5.858e-10
-0.299, -5.942e-10
-0.306, -6.018e-10
-0.313, -6.100e-10
-0.320, -6.191e-10
-0.327, -6.277e-10
-0.334, -6.358e-10
-0.341, -6.446e-10
-0.348, -6.528e-10
-0.355, -6.614e-10
-0.362, -6.693e-10
-0.369, -6.775e-10
-0.376, -6.858e-10
-0.383, -6.990e-10
-0.390, -7.081e-10
-0.397, -7.252e-10
-0.404, -7.391e-10
-0.411, -7.491e-10
-0.418, -7.594e-10
-0.425, -7.787e-10
-0.432, -7.888e-10
-0.439, -7.979e-10
-0.446, -8.068e-10
-0.453, -8.150e-10
-0.460, -8.247e-10
-0.467, -8.349e-10
-0.474, -8.437e-10
-0.481, -8.503e-10
-0.488, -8.593e-10
-0.495, -8.635e-10
-0.499, -8.612e-10