Folder: Bioelectricity-generation-by-Symbiodinium-microadriaticum/Supplementary Fig 4/Fig S4f Surface CV no cells (part 2)

File: CV SURFACE (incubation) (5).txt
Mar. 6, 2025   16:09:51
Cyclic Voltammetry
File: cv surface (incubation) (5).bin
Data Source:  Experiment
Instrument Model:  CHI920C
Ref. Electrode:
Header:
Note:

Init E (V) = -0.5
High E (V) = 0.5
Low E (V) = -0.5
Init P/N = P
Scan Rate (V/s) = 0.05
Segment = 2
Sample Interval (V) = 0.001
Quiet Time (sec) = 10
Sensitivity (A/V) = 1e-7

Results:

Channel 1:
Segment 1:

Segment 2:

Potential/V, Current/A

-0.500, -4.950e-9
-0.493, -4.689e-9
-0.486, -4.479e-9
-0.479, -4.285e-9
-0.472, -4.118e-9
-0.465, -3.955e-9
-0.458, -3.802e-9
-0.451, -3.639e-9
-0.444, -3.494e-9
-0.437, -3.363e-9
-0.430, -3.216e-9
-0.423, -3.080e-9
-0.416, -2.956e-9
-0.409, -2.833e-9
-0.402, -2.707e-9
-0.395, -2.597e-9
-0.388, -2.485e-9
-0.381, -2.371e-9
-0.374, -2.269e-9
-0.367, -2.167e-9
-0.360, -2.065e-9
-0.353, -1.978e-9
-0.346, -1.883e-9
-0.339, -1.792e-9
-0.332, -1.712e-9
-0.325, -1.626e-9
-0.318, -1.550e-9
-0.311, -1.471e-9
-0.304, -1.394e-9
-0.297, -1.322e-9
-0.290, -1.250e-9
-0.283, -1.186e-9
-0.276, -1.121e-9
-0.269, -1.053e-9
-0.262, -9.948e-10
-0.255, -9.313e-10
-0.248, -8.705e-10
-0.241, -8.242e-10
-0.234, -7.741e-10
-0.227, -7.156e-10
-0.220, -6.705e-10
-0.213, -6.203e-10
-0.206, -5.775e-10
-0.199, -5.299e-10
-0.192, -4.792e-10
-0.185, -4.400e-10
-0.178, -3.967e-10
-0.171, -3.526e-10
-0.164, -3.211e-10
-0.157, -2.780e-10
-0.150, -2.350e-10
-0.143, -2.033e-10
-0.136, -1.667e-10
-0.129, -1.289e-10
-0.122, -9.832e-11
-0.115, -6.839e-11
-0.108, -2.696e-11
-0.101, 9.007e-12
-0.094, 3.845e-11
-0.087, 6.691e-11
-0.080, 9.820e-11
-0.073, 1.237e-10
-0.066, 1.467e-10
-0.059, 1.766e-10
-0.052, 2.020e-10
-0.045, 2.267e-10
-0.038, 2.560e-10
-0.031, 2.875e-10
-0.024, 3.042e-10
-0.017, 3.247e-10
-0.010, 3.731e-10
-0.003, 3.646e-10
0.004, 3.848e-10
0.011, 4.124e-10
0.018, 4.265e-10
0.025, 4.557e-10
0.032, 4.741e-10
0.039, 4.950e-10
0.046, 5.204e-10
0.053, 5.383e-10
0.060, 5.477e-10
0.067, 5.659e-10
0.074, 5.875e-10
0.081, 5.985e-10
0.088, 6.295e-10
0.095, 6.753e-10
0.102, 7.530e-10
0.109, 8.300e-10
0.116, 8.596e-10
0.123, 9.220e-10
0.130, 9.540e-10
0.137, 1.013e-9
0.144, 1.038e-9
0.151, 1.052e-9
0.158, 1.072e-9
0.165, 1.115e-9
0.172, 1.129e-9
0.179, 1.144e-9
0.186, 1.173e-9
0.193, 1.200e-9
0.200, 1.267e-9
0.207, 1.283e-9
0.214, 1.313e-9
0.221, 1.337e-9
0.228, 1.383e-9
0.235, 1.424e-9
0.242, 1.436e-9
0.249, 1.481e-9
0.256, 1.498e-9
0.263, 1.534e-9
0.270, 1.588e-9
0.277, 1.625e-9
0.284, 1.669e-9
0.291, 1.716e-9
0.298, 1.758e-9
0.305, 1.809e-9
0.312, 1.862e-9
0.319, 1.899e-9
0.326, 1.940e-9
0.333, 1.977e-9
0.340, 2.005e-9
0.347, 2.057e-9
0.354, 2.106e-9
0.361, 2.131e-9
0.368, 2.187e-9
0.375, 2.224e-9
0.382, 2.263e-9
0.389, 2.296e-9
0.396, 2.334e-9
0.403, 2.386e-9
0.410, 2.413e-9
0.417, 2.457e-9
0.424, 2.500e-9
0.431, 2.540e-9
0.438, 2.551e-9
0.445, 2.599e-9
0.452, 2.638e-9
0.459, 2.672e-9
0.466, 2.722e-9
0.473, 2.759e-9
0.480, 2.794e-9
0.487, 2.838e-9
0.494, 2.863e-9
0.499, 2.795e-9
0.492, 2.532e-9
0.485, 2.355e-9
0.478, 2.225e-9
0.471, 2.115e-9
0.464, 2.020e-9
0.457, 1.937e-9
0.450, 1.853e-9
0.443, 1.776e-9
0.436, 1.697e-9
0.429, 1.637e-9
0.422, 1.575e-9
0.415, 1.501e-9
0.408, 1.449e-9
0.401, 1.382e-9
0.394, 1.314e-9
0.387, 1.259e-9
0.380, 1.195e-9
0.373, 1.135e-9
0.366, 1.086e-9
0.359, 1.033e-9
0.352, 9.805e-10
0.345, 9.246e-10
0.338, 8.744e-10
0.331, 8.303e-10
0.324, 7.772e-10
0.317, 7.382e-10
0.310, 6.943e-10
0.303, 6.449e-10
0.296, 6.084e-10
0.289, 5.699e-10
0.282, 5.253e-10
0.275, 4.871e-10
0.268, 4.457e-10
0.261, 4.045e-10
0.254, 3.717e-10
0.247, 3.389e-10
0.240, 3.049e-10
0.233, 2.709e-10
0.226, 2.394e-10
0.219, 2.052e-10
0.212, 1.681e-10
0.205, 1.423e-10
0.198, 1.139e-10
0.191, 8.368e-11
0.184, 5.443e-11
0.177, 2.616e-11
0.170, -2.301e-12
0.163, -3.730e-11
0.156, -6.381e-11
0.149, -9.042e-11
0.142, -1.191e-10
0.135, -1.443e-10
0.128, -1.699e-10
0.121, -1.978e-10
0.114, -2.233e-10
0.107, -2.553e-10
0.100, -2.798e-10
0.093, -3.089e-10
0.086, -3.392e-10
0.079, -3.540e-10
0.072, -3.855e-10
0.065, -4.175e-10
0.058, -4.358e-10
0.051, -4.692e-10
0.044, -5.021e-10
0.037, -5.333e-10
0.030, -5.656e-10
0.023, -5.973e-10
0.016, -6.296e-10
0.009, -6.615e-10
0.002, -6.986e-10
-0.005, -7.350e-10
-0.012, -7.749e-10
-0.019, -8.151e-10
-0.026, -8.499e-10
-0.033, -8.904e-10
-0.040, -9.387e-10
-0.047, -9.824e-10
-0.054, -1.035e-9
-0.061, -1.082e-9
-0.068, -1.132e-9
-0.075, -1.190e-9
-0.082, -1.240e-9
-0.089, -1.307e-9
-0.096, -1.363e-9
-0.103, -1.419e-9
-0.110, -1.495e-9
-0.117, -1.555e-9
-0.124, -1.619e-9
-0.131, -1.688e-9
-0.138, -1.757e-9
-0.145, -1.831e-9
-0.152, -1.903e-9
-0.159, -1.978e-9
-0.166, -2.054e-9
-0.173, -2.130e-9
-0.180, -2.213e-9
-0.187, -2.289e-9
-0.194, -2.368e-9
-0.201, -2.453e-9
-0.208, -2.531e-9
-0.215, -2.611e-9
-0.222, -2.690e-9
-0.229, -2.771e-9
-0.236, -2.856e-9
-0.243, -2.932e-9
-0.250, -3.016e-9
-0.257, -3.097e-9
-0.264, -3.180e-9
-0.271, -3.269e-9
-0.278, -3.354e-9
-0.285, -3.441e-9
-0.292, -3.515e-9
-0.299, -3.600e-9
-0.306, -3.696e-9
-0.313, -3.776e-9
-0.320, -3.861e-9
-0.327, -3.963e-9
-0.334, -4.041e-9
-0.341, -4.133e-9
-0.348, -4.227e-9
-0.355, -4.319e-9
-0.362, -4.423e-9
-0.369, -4.528e-9
-0.376, -4.642e-9
-0.383, -4.738e-9
-0.390, -4.846e-9
-0.397, -4.971e-9
-0.404, -5.078e-9
-0.411, -5.189e-9
-0.418, -5.301e-9
-0.425, -5.403e-9
-0.432, -5.501e-9
-0.439, -5.609e-9
-0.446, -5.713e-9
-0.453, -5.822e-9
-0.460, -5.920e-9
-0.467, -6.032e-9
-0.474, -6.151e-9
-0.481, -6.246e-9
-0.488, -6.342e-9
-0.495, -6.447e-9
-0.499, -6.500e-9

File: CV SURFACE (incubation) (6).txt
Mar. 6, 2025   16:10:55
Cyclic Voltammetry
File: cv surface (incubation) (6).bin
Data Source:  Experiment
Instrument Model:  CHI920C
Ref. Electrode:
Header:
Note:

Init E (V) = -0.5
High E (V) = 0.5
Low E (V) = -0.5
Init P/N = P
Scan Rate (V/s) = 0.05
Segment = 2
Sample Interval (V) = 0.001
Quiet Time (sec) = 10
Sensitivity (A/V) = 1e-7

Results:

Channel 1:
Segment 1:

Segment 2:

Potential/V, Current/A

-0.500, -4.896e-9
-0.493, -4.616e-9
-0.486, -4.423e-9
-0.479, -4.241e-9
-0.472, -4.061e-9
-0.465, -3.900e-9
-0.458, -3.741e-9
-0.451, -3.585e-9
-0.444, -3.439e-9
-0.437, -3.299e-9
-0.430, -3.167e-9
-0.423, -3.035e-9
-0.416, -2.907e-9
-0.409, -2.785e-9
-0.402, -2.662e-9
-0.395, -2.539e-9
-0.388, -2.425e-9
-0.381, -2.303e-9
-0.374, -2.195e-9
-0.367, -2.101e-9
-0.360, -1.998e-9
-0.353, -1.905e-9
-0.346, -1.810e-9
-0.339, -1.727e-9
-0.332, -1.647e-9
-0.325, -1.565e-9
-0.318, -1.496e-9
-0.311, -1.417e-9
-0.304, -1.340e-9
-0.297, -1.279e-9
-0.290, -1.207e-9
-0.283, -1.140e-9
-0.276, -1.085e-9
-0.269, -1.022e-9
-0.262, -9.597e-10
-0.255, -9.045e-10
-0.248, -8.480e-10
-0.241, -8.016e-10
-0.234, -7.464e-10
-0.227, -6.926e-10
-0.220, -6.500e-10
-0.213, -6.011e-10
-0.206, -5.593e-10
-0.199, -5.128e-10
-0.192, -4.616e-10
-0.185, -4.216e-10
-0.178, -3.815e-10
-0.171, -3.422e-10
-0.164, -3.041e-10
-0.157, -2.608e-10
-0.150, -2.261e-10
-0.143, -1.851e-10
-0.136, -1.497e-10
-0.129, -1.203e-10
-0.122, -8.643e-11
-0.115, -4.948e-11
-0.108, -2.053e-11
-0.101, 1.242e-11
-0.094, 4.966e-11
-0.087, 7.374e-11
-0.080, 9.898e-11
-0.073, 1.349e-10
-0.066, 1.573e-10
-0.059, 1.756e-10
-0.052, 2.086e-10
-0.045, 2.349e-10
-0.038, 2.572e-10
-0.031, 2.800e-10
-0.024, 3.064e-10
-0.017, 3.272e-10
-0.010, 3.482e-10
-0.003, 3.694e-10
0.004, 3.922e-10
0.011, 4.112e-10
0.018, 4.286e-10
0.025, 4.511e-10
0.032, 4.686e-10
0.039, 4.938e-10
0.046, 5.113e-10
0.053, 5.247e-10
0.060, 5.414e-10
0.067, 5.563e-10
0.074, 5.727e-10
0.081, 5.905e-10
0.088, 6.186e-10
0.095, 6.244e-10
0.102, 6.474e-10
0.109, 6.821e-10
0.116, 7.397e-10
0.123, 7.595e-10
0.130, 7.911e-10
0.137, 7.986e-10
0.144, 8.560e-10
0.151, 8.847e-10
0.158, 1.002e-9
0.165, 1.042e-9
0.172, 1.068e-9
0.179, 1.105e-9
0.186, 1.165e-9
0.193, 1.202e-9
0.200, 1.245e-9
0.207, 1.291e-9
0.214, 1.322e-9
0.221, 1.351e-9
0.228, 1.404e-9
0.235, 1.420e-9
0.242, 1.443e-9
0.249, 1.472e-9
0.256, 1.493e-9
0.263, 1.525e-9
0.270, 1.553e-9
0.277, 1.595e-9
0.284, 1.640e-9
0.291, 1.688e-9
0.298, 1.734e-9
0.305, 1.767e-9
0.312, 1.805e-9
0.319, 1.848e-9
0.326, 1.884e-9
0.333, 1.918e-9
0.340, 1.956e-9
0.347, 1.998e-9
0.354, 2.041e-9
0.361, 2.074e-9
0.368, 2.110e-9
0.375, 2.155e-9
0.382, 2.200e-9
0.389, 2.240e-9
0.396, 2.280e-9
0.403, 2.338e-9
0.410, 2.364e-9
0.417, 2.407e-9
0.424, 2.435e-9
0.431, 2.477e-9
0.438, 2.521e-9
0.445, 2.563e-9
0.452, 2.601e-9
0.459, 2.650e-9
0.466, 2.686e-9
0.473, 2.726e-9
0.480, 2.764e-9
0.487, 2.795e-9
0.494, 2.850e-9
0.499, 2.776e-9
0.492, 2.497e-9
0.485, 2.340e-9
0.478, 2.212e-9
0.471, 2.104e-9
0.464, 2.019e-9
0.457, 1.939e-9
0.450, 1.856e-9
0.443, 1.788e-9
0.436, 1.727e-9
0.429, 1.648e-9
0.422, 1.586e-9
0.415, 1.529e-9
0.408, 1.459e-9
0.401, 1.395e-9
0.394, 1.340e-9
0.387, 1.268e-9
0.380, 1.218e-9
0.373, 1.163e-9
0.366, 1.107e-9
0.359, 1.055e-9
0.352, 1.010e-9
0.345, 9.586e-10
0.338, 9.019e-10
0.331, 8.621e-10
0.324, 8.105e-10
0.317, 7.641e-10
0.310, 7.259e-10
0.303, 6.740e-10
0.296, 6.346e-10
0.289, 5.962e-10
0.282, 5.544e-10
0.275, 5.169e-10
0.268, 4.754e-10
0.261, 4.311e-10
0.254, 4.028e-10
0.247, 3.631e-10
0.240, 3.320e-10
0.233, 3.049e-10
0.226, 2.659e-10
0.219, 2.381e-10
0.212, 2.021e-10
0.205, 1.723e-10
0.198, 1.488e-10
0.191, 1.153e-10
0.184, 9.304e-11
0.177, 6.350e-11
0.170, 2.909e-11
0.163, 7.253e-12
0.156, -2.160e-11
0.149, -5.962e-11
0.142, -8.185e-11
0.135, -1.011e-10
0.128, -1.374e-10
0.121, -1.605e-10
0.114, -1.812e-10
0.107, -2.141e-10
0.100, -2.427e-10
0.093, -2.643e-10
0.086, -3.010e-10
0.079, -3.280e-10
0.072, -3.466e-10
0.065, -3.761e-10
0.058, -4.076e-10
0.051, -4.310e-10
0.044, -4.607e-10
0.037, -4.940e-10
0.030, -5.279e-10
0.023, -5.627e-10
0.016, -5.915e-10
0.009, -6.266e-10
0.002, -6.620e-10
-0.005, -6.924e-10
-0.012, -7.356e-10
-0.019, -7.748e-10
-0.026, -8.134e-10
-0.033, -8.540e-10
-0.040, -8.958e-10
-0.047, -9.399e-10
-0.054, -9.908e-10
-0.061, -1.045e-9
-0.068, -1.091e-9
-0.075, -1.143e-9
-0.082, -1.203e-9
-0.089, -1.260e-9
-0.096, -1.319e-9
-0.103, -1.377e-9
-0.110, -1.442e-9
-0.117, -1.507e-9
-0.124, -1.573e-9
-0.131, -1.644e-9
-0.138, -1.704e-9
-0.145, -1.779e-9
-0.152, -1.859e-9
-0.159, -1.926e-9
-0.166, -2.004e-9
-0.173, -2.083e-9
-0.180, -2.157e-9
-0.187, -2.238e-9
-0.194, -2.313e-9
-0.201, -2.395e-9
-0.208, -2.474e-9
-0.215, -2.553e-9
-0.222, -2.630e-9
-0.229, -2.707e-9
-0.236, -2.784e-9
-0.243, -2.874e-9
-0.250, -2.949e-9
-0.257, -3.034e-9
-0.264, -3.120e-9
-0.271, -3.201e-9
-0.278, -3.286e-9
-0.285, -3.368e-9
-0.292, -3.459e-9
-0.299, -3.536e-9
-0.306, -3.615e-9
-0.313, -3.707e-9
-0.320, -3.794e-9
-0.327, -3.879e-9
-0.334, -3.978e-9
-0.341, -4.072e-9
-0.348, -4.158e-9
-0.355, -4.252e-9
-0.362, -4.356e-9
-0.369, -4.459e-9
-0.376, -4.571e-9
-0.383, -4.690e-9
-0.390, -4.787e-9
-0.397, -4.886e-9
-0.404, -5.005e-9
-0.411, -5.101e-9
-0.418, -5.208e-9
-0.425, -5.319e-9
-0.432, -5.423e-9
-0.439, -5.531e-9
-0.446, -5.643e-9
-0.453, -5.743e-9
-0.460, -5.848e-9
-0.467, -5.960e-9
-0.474, -6.064e-9
-0.481, -6.164e-9
-0.488, -6.267e-9
-0.495, -6.362e-9
-0.499, -6.421e-9

File: CV SURFACE (incubation) (7).txt
Mar. 6, 2025   16:12:06
Cyclic Voltammetry
File: cv surface (incubation) (7).bin
Data Source:  Experiment
Instrument Model:  CHI920C
Ref. Electrode:
Header:
Note:

Init E (V) = -0.5
High E (V) = 0.5
Low E (V) = -0.5
Init P/N = P
Scan Rate (V/s) = 0.05
Segment = 2
Sample Interval (V) = 0.001
Quiet Time (sec) = 10
Sensitivity (A/V) = 1e-7

Results:

Channel 1:
Segment 1:

Segment 2:

Potential/V, Current/A

-0.500, -4.756e-9
-0.493, -4.493e-9
-0.486, -4.307e-9
-0.479, -4.121e-9
-0.472, -3.944e-9
-0.465, -3.788e-9
-0.458, -3.631e-9
-0.451, -3.481e-9
-0.444, -3.335e-9
-0.437, -3.189e-9
-0.430, -3.056e-9
-0.423, -2.923e-9
-0.416, -2.790e-9
-0.409, -2.673e-9
-0.402, -2.553e-9
-0.395, -2.437e-9
-0.388, -2.331e-9
-0.381, -2.228e-9
-0.374, -2.119e-9
-0.367, -2.025e-9
-0.360, -1.928e-9
-0.353, -1.826e-9
-0.346, -1.749e-9
-0.339, -1.658e-9
-0.332, -1.571e-9
-0.325, -1.495e-9
-0.318, -1.412e-9
-0.311, -1.340e-9
-0.304, -1.276e-9
-0.297, -1.206e-9
-0.290, -1.141e-9
-0.283, -1.083e-9
-0.276, -1.024e-9
-0.269, -9.584e-10
-0.262, -9.096e-10
-0.255, -8.531e-10
-0.248, -8.058e-10
-0.241, -7.560e-10
-0.234, -7.035e-10
-0.227, -6.634e-10
-0.220, -6.140e-10
-0.213, -5.710e-10
-0.206, -5.321e-10
-0.199, -4.788e-10
-0.192, -4.430e-10
-0.185, -3.994e-10
-0.178, -3.618e-10
-0.171, -3.298e-10
-0.164, -2.906e-10
-0.157, -2.524e-10
-0.150, -2.172e-10
-0.143, -1.803e-10
-0.136, -1.465e-10
-0.129, -1.202e-10
-0.122, -8.701e-11
-0.115, -5.631e-11
-0.108, -2.648e-11
-0.101, 1.213e-11
-0.094, 4.225e-11
-0.087, 6.174e-11
-0.080, 9.050e-11
-0.073, 1.135e-10
-0.066, 1.328e-10
-0.059, 1.607e-10
-0.052, 2.002e-10
-0.045, 2.280e-10
-0.038, 2.293e-10
-0.031, 2.484e-10
-0.024, 2.720e-10
-0.017, 2.875e-10
-0.010, 3.112e-10
-0.003, 3.325e-10
0.004, 3.582e-10
0.011, 3.721e-10
0.018, 3.871e-10
0.025, 3.994e-10
0.032, 4.165e-10
0.039, 4.350e-10
0.046, 4.479e-10
0.053, 4.662e-10
0.060, 4.808e-10
0.067, 5.005e-10
0.074, 5.199e-10
0.081, 5.322e-10
0.088, 5.481e-10
0.095, 5.833e-10
0.102, 5.945e-10
0.109, 6.439e-10
0.116, 6.830e-10
0.123, 7.157e-10
0.130, 7.346e-10
0.137, 8.036e-10
0.144, 8.757e-10
0.151, 9.053e-10
0.158, 9.326e-10
0.165, 1.018e-9
0.172, 1.057e-9
0.179, 1.080e-9
0.186, 1.121e-9
0.193, 1.155e-9
0.200, 1.202e-9
0.207, 1.260e-9
0.214, 1.280e-9
0.221, 1.321e-9
0.228, 1.378e-9
0.235, 1.402e-9
0.242, 1.416e-9
0.249, 1.443e-9
0.256, 1.465e-9
0.263, 1.505e-9
0.270, 1.531e-9
0.277, 1.560e-9
0.284, 1.597e-9
0.291, 1.643e-9
0.298, 1.686e-9
0.305, 1.722e-9
0.312, 1.757e-9
0.319, 1.806e-9
0.326, 1.854e-9
0.333, 1.880e-9
0.340, 1.925e-9
0.347, 1.966e-9
0.354, 2.001e-9
0.361, 2.044e-9
0.368, 2.087e-9
0.375, 2.121e-9
0.382, 2.173e-9
0.389, 2.221e-9
0.396, 2.260e-9
0.403, 2.311e-9
0.410, 2.352e-9
0.417, 2.383e-9
0.424, 2.426e-9
0.431, 2.472e-9
0.438, 2.511e-9
0.445, 2.542e-9
0.452, 2.577e-9
0.459, 2.619e-9
0.466, 2.656e-9
0.473, 2.697e-9
0.480, 2.738e-9
0.487, 2.783e-9
0.494, 2.815e-9
0.499, 2.736e-9
0.492, 2.476e-9
0.485, 2.313e-9
0.478, 2.197e-9
0.471, 2.092e-9
0.464, 2.009e-9
0.457, 1.925e-9
0.450, 1.840e-9
0.443, 1.767e-9
0.436, 1.699e-9
0.429, 1.628e-9
0.422, 1.570e-9
0.415, 1.509e-9
0.408, 1.452e-9
0.401, 1.390e-9
0.394, 1.335e-9
0.387, 1.271e-9
0.380, 1.214e-9
0.373, 1.163e-9
0.366, 1.104e-9
0.359, 1.058e-9
0.352, 1.010e-9
0.345, 9.545e-10
0.338, 9.106e-10
0.331, 8.640e-10
0.324, 8.132e-10
0.317, 7.724e-10
0.310, 7.347e-10
0.303, 6.837e-10
0.296, 6.515e-10
0.289, 6.084e-10
0.282, 5.702e-10
0.275, 5.357e-10
0.268, 4.912e-10
0.261, 4.554e-10
0.254, 4.194e-10
0.247, 3.825e-10
0.240, 3.551e-10
0.233, 3.248e-10
0.226, 2.868e-10
0.219, 2.583e-10
0.212, 2.279e-10
0.205, 1.903e-10
0.198, 1.610e-10
0.191, 1.367e-10
0.184, 1.041e-10
0.177, 7.315e-11
0.170, 5.102e-11
0.163, 1.846e-11
0.156, -8.052e-12
0.149, -4.003e-11
0.142, -6.927e-11
0.135, -9.296e-11
0.128, -1.224e-10
0.121, -1.455e-10
0.114, -1.691e-10
0.107, -1.995e-10
0.100, -2.265e-10
0.093, -2.480e-10
0.086, -2.815e-10
0.079, -3.114e-10
0.072, -3.299e-10
0.065, -3.599e-10
0.058, -3.866e-10
0.051, -4.079e-10
0.044, -4.395e-10
0.037, -4.701e-10
0.030, -4.968e-10
0.023, -5.348e-10
0.016, -5.712e-10
0.009, -5.959e-10
0.002, -6.279e-10
-0.005, -6.698e-10
-0.012, -6.992e-10
-0.019, -7.379e-10
-0.026, -7.813e-10
-0.033, -8.157e-10
-0.040, -8.568e-10
-0.047, -8.991e-10
-0.054, -9.452e-10
-0.061, -9.925e-10
-0.068, -1.041e-9
-0.075, -1.091e-9
-0.082, -1.146e-9
-0.089, -1.191e-9
-0.096, -1.252e-9
-0.103, -1.315e-9
-0.110, -1.365e-9
-0.117, -1.428e-9
-0.124, -1.491e-9
-0.131, -1.557e-9
-0.138, -1.622e-9
-0.145, -1.682e-9
-0.152, -1.755e-9
-0.159, -1.818e-9
-0.166, -1.893e-9
-0.173, -1.963e-9
-0.180, -2.034e-9
-0.187, -2.112e-9
-0.194, -2.183e-9
-0.201, -2.257e-9
-0.208, -2.335e-9
-0.215, -2.405e-9
-0.222, -2.484e-9
-0.229, -2.551e-9
-0.236, -2.623e-9
-0.243, -2.704e-9
-0.250, -2.781e-9
-0.257, -2.864e-9
-0.264, -2.945e-9
-0.271, -3.027e-9
-0.278, -3.108e-9
-0.285, -3.190e-9
-0.292, -3.277e-9
-0.299, -3.357e-9
-0.306, -3.446e-9
-0.313, -3.521e-9
-0.320, -3.604e-9
-0.327, -3.705e-9
-0.334, -3.791e-9
-0.341, -3.878e-9
-0.348, -3.969e-9
-0.355, -4.074e-9
-0.362, -4.176e-9
-0.369, -4.280e-9
-0.376, -4.388e-9
-0.383, -4.486e-9
-0.390, -4.591e-9
-0.397, -4.719e-9
-0.404, -4.822e-9
-0.411, -4.919e-9
-0.418, -5.037e-9
-0.425, -5.158e-9
-0.432, -5.261e-9
-0.439, -5.367e-9
-0.446, -5.482e-9
-0.453, -5.585e-9
-0.460, -5.701e-9
-0.467, -5.813e-9
-0.474, -5.922e-9
-0.481, -6.025e-9
-0.488, -6.119e-9
-0.495, -6.226e-9
-0.499, -6.291e-9

File: CV SURFACE (incubation) (8).txt
Mar. 6, 2025   16:13:15
Cyclic Voltammetry
File: cv surface (incubation) (8).bin
Data Source:  Experiment
Instrument Model:  CHI920C
Ref. Electrode:
Header:
Note:

Init E (V) = -0.5
High E (V) = 0.5
Low E (V) = -0.5
Init P/N = P
Scan Rate (V/s) = 0.05
Segment = 2
Sample Interval (V) = 0.001
Quiet Time (sec) = 10
Sensitivity (A/V) = 1e-7

Results:

Channel 1:
Segment 1:

Segment 2:

Potential/V, Current/A

-0.500, -4.526e-9
-0.493, -4.276e-9
-0.486, -4.077e-9
-0.479, -3.905e-9
-0.472, -3.741e-9
-0.465, -3.567e-9
-0.458, -3.413e-9
-0.451, -3.269e-9
-0.444, -3.126e-9
-0.437, -2.979e-9
-0.430, -2.848e-9
-0.423, -2.723e-9
-0.416, -2.593e-9
-0.409, -2.472e-9
-0.402, -2.348e-9
-0.395, -2.240e-9
-0.388, -2.133e-9
-0.381, -2.029e-9
-0.374, -1.935e-9
-0.367, -1.843e-9
-0.360, -1.761e-9
-0.353, -1.675e-9
-0.346, -1.602e-9
-0.339, -1.522e-9
-0.332, -1.447e-9
-0.325, -1.378e-9
-0.318, -1.308e-9
-0.311, -1.244e-9
-0.304, -1.184e-9
-0.297, -1.116e-9
-0.290, -1.065e-9
-0.283, -1.014e-9
-0.276, -9.492e-10
-0.269, -9.011e-10
-0.262, -8.521e-10
-0.255, -8.091e-10
-0.248, -7.660e-10
-0.241, -7.185e-10
-0.234, -6.803e-10
-0.227, -6.380e-10
-0.220, -6.009e-10
-0.213, -5.596e-10
-0.206, -5.219e-10
-0.199, -4.832e-10
-0.192, -4.417e-10
-0.185, -4.071e-10
-0.178, -3.752e-10
-0.171, -3.412e-10
-0.164, -3.201e-10
-0.157, -2.842e-10
-0.150, -2.464e-10
-0.143, -2.219e-10
-0.136, -1.841e-10
-0.129, -1.627e-10
-0.122, -1.418e-10
-0.115, -1.141e-10
-0.108, -8.808e-11
-0.101, -6.644e-11
-0.094, -3.925e-11
-0.087, -8.442e-12
-0.080, 9.982e-12
-0.073, 3.094e-11
-0.066, 5.648e-11
-0.059, 8.046e-11
-0.052, 1.041e-10
-0.045, 1.407e-10
-0.038, 1.439e-10
-0.031, 1.556e-10
-0.024, 1.709e-10
-0.017, 2.038e-10
-0.010, 2.242e-10
-0.003, 2.284e-10
0.004, 2.434e-10
0.011, 2.667e-10
0.018, 2.717e-10
0.025, 3.105e-10
0.032, 3.043e-10
0.039, 3.365e-10
0.046, 3.718e-10
0.053, 3.821e-10
0.060, 4.292e-10
0.067, 4.581e-10
0.074, 6.459e-10
0.081, 6.706e-10
0.088, 7.725e-10
0.095, 7.912e-10
0.102, 8.650e-10
0.109, 8.773e-10
0.116, 9.208e-10
0.123, 9.545e-10
0.130, 9.757e-10
0.137, 1.002e-9
0.144, 1.040e-9
0.151, 1.045e-9
0.158, 1.098e-9
0.165, 1.122e-9
0.172, 1.138e-9
0.179, 1.167e-9
0.186, 1.204e-9
0.193, 1.235e-9
0.200, 1.253e-9
0.207, 1.281e-9
0.214, 1.309e-9
0.221, 1.318e-9
0.228, 1.343e-9
0.235, 1.358e-9
0.242, 1.402e-9
0.249, 1.421e-9
0.256, 1.444e-9
0.263, 1.474e-9
0.270, 1.501e-9
0.277, 1.538e-9
0.284, 1.568e-9
0.291, 1.606e-9
0.298, 1.640e-9
0.305, 1.687e-9
0.312, 1.725e-9
0.319, 1.762e-9
0.326, 1.803e-9
0.333, 1.838e-9
0.340, 1.876e-9
0.347, 1.916e-9
0.354, 1.946e-9
0.361, 1.992e-9
0.368, 2.035e-9
0.375, 2.075e-9
0.382, 2.125e-9
0.389, 2.163e-9
0.396, 2.211e-9
0.403, 2.248e-9
0.410, 2.274e-9
0.417, 2.312e-9
0.424, 2.351e-9
0.431, 2.400e-9
0.438, 2.443e-9
0.445, 2.482e-9
0.452, 2.516e-9
0.459, 2.563e-9
0.466, 2.607e-9
0.473, 2.651e-9
0.480, 2.681e-9
0.487, 2.719e-9
0.494, 2.756e-9
0.499, 2.679e-9
0.492, 2.434e-9
0.485, 2.264e-9
0.478, 2.147e-9
0.471, 2.052e-9
0.464, 1.965e-9
0.457, 1.890e-9
0.450, 1.823e-9
0.443, 1.749e-9
0.436, 1.687e-9
0.429, 1.629e-9
0.422, 1.561e-9
0.415, 1.506e-9
0.408, 1.460e-9
0.401, 1.391e-9
0.394, 1.341e-9
0.387, 1.287e-9
0.380, 1.230e-9
0.373, 1.179e-9
0.366, 1.124e-9
0.359, 1.078e-9
0.352, 1.031e-9
0.345, 9.807e-10
0.338, 9.346e-10
0.331, 8.850e-10
0.324, 8.377e-10
0.317, 7.953e-10
0.310, 7.543e-10
0.303, 7.080e-10
0.296, 6.695e-10
0.289, 6.312e-10
0.282, 5.934e-10
0.275, 5.560e-10
0.268, 5.230e-10
0.261, 4.810e-10
0.254, 4.469e-10
0.247, 4.081e-10
0.240, 3.770e-10
0.233, 3.451e-10
0.226, 3.140e-10
0.219, 2.875e-10
0.212, 2.530e-10
0.205, 2.253e-10
0.198, 1.953e-10
0.191, 1.583e-10
0.184, 1.392e-10
0.177, 1.148e-10
0.170, 8.017e-11
0.163, 5.219e-11
0.156, 3.153e-11
0.149, -1.521e-12
0.142, -3.135e-11
0.135, -5.465e-11
0.128, -8.643e-11
0.121, -1.102e-10
0.114, -1.317e-10
0.107, -1.587e-10
0.100, -1.865e-10
0.093, -2.094e-10
0.086, -2.358e-10
0.079, -2.655e-10
0.072, -2.936e-10
0.065, -3.201e-10
0.058, -3.457e-10
0.051, -3.688e-10
0.044, -3.996e-10
0.037, -4.240e-10
0.030, -4.515e-10
0.023, -4.864e-10
0.016, -5.191e-10
0.009, -5.512e-10
0.002, -5.895e-10
-0.005, -6.230e-10
-0.012, -6.467e-10
-0.019, -6.939e-10
-0.026, -7.284e-10
-0.033, -7.642e-10
-0.040, -8.110e-10
-0.047, -8.511e-10
-0.054, -8.905e-10
-0.061, -9.373e-10
-0.068, -9.881e-10
-0.075, -1.040e-9
-0.082, -1.086e-9
-0.089, -1.144e-9
-0.096, -1.197e-9
-0.103, -1.256e-9
-0.110, -1.320e-9
-0.117, -1.373e-9
-0.124, -1.434e-9
-0.131, -1.507e-9
-0.138, -1.569e-9
-0.145, -1.632e-9
-0.152, -1.705e-9
-0.159, -1.776e-9
-0.166, -1.840e-9
-0.173, -1.918e-9
-0.180, -1.991e-9
-0.187, -2.057e-9
-0.194, -2.139e-9
-0.201, -2.216e-9
-0.208, -2.291e-9
-0.215, -2.366e-9
-0.222, -2.441e-9
-0.229, -2.518e-9
-0.236, -2.588e-9
-0.243, -2.665e-9
-0.250, -2.751e-9
-0.257, -2.830e-9
-0.264, -2.907e-9
-0.271, -2.988e-9
-0.278, -3.069e-9
-0.285, -3.145e-9
-0.292, -3.234e-9
-0.299, -3.318e-9
-0.306, -3.407e-9
-0.313, -3.492e-9
-0.320, -3.573e-9
-0.327, -3.670e-9
-0.334, -3.757e-9
-0.341, -3.846e-9
-0.348, -3.943e-9
-0.355, -4.030e-9
-0.362, -4.132e-9
-0.369, -4.244e-9
-0.376, -4.349e-9
-0.383, -4.448e-9
-0.390, -4.565e-9
-0.397, -4.677e-9
-0.404, -4.770e-9
-0.411, -4.889e-9
-0.418, -4.984e-9
-0.425, -5.082e-9
-0.432, -5.199e-9
-0.439, -5.308e-9
-0.446, -5.407e-9
-0.453, -5.521e-9
-0.460, -5.635e-9
-0.467, -5.728e-9
-0.474, -5.824e-9
-0.481, -5.932e-9
-0.488, -6.045e-9
-0.495, -6.150e-9
-0.499, -6.202e-9