Folder: Bioelectricity-generation-by-Symbiodinium-microadriaticum/Supplementary Fig 4/Fig S4f Surface CV no cells

File: CV SURFACE (incubation) (1).txt
Mar. 6, 2025   16:05:19
Cyclic Voltammetry
File: cv surface (incubation) (1).bin
Data Source:  Experiment
Instrument Model:  CHI920C
Ref. Electrode:
Header:
Note:

Init E (V) = -0.5
High E (V) = 0.5
Low E (V) = -0.5
Init P/N = P
Scan Rate (V/s) = 0.05
Segment = 2
Sample Interval (V) = 0.001
Quiet Time (sec) = 10
Sensitivity (A/V) = 1e-7

Results:

Channel 1:
Segment 1:

Segment 2:

Potential/V, Current/A

-0.500, -5.304e-9
-0.493, -5.028e-9
-0.486, -4.826e-9
-0.479, -4.651e-9
-0.472, -4.478e-9
-0.465, -4.320e-9
-0.458, -4.176e-9
-0.451, -4.020e-9
-0.444, -3.880e-9
-0.437, -3.750e-9
-0.430, -3.610e-9
-0.423, -3.487e-9
-0.416, -3.362e-9
-0.409, -3.240e-9
-0.402, -3.119e-9
-0.395, -2.998e-9
-0.388, -2.890e-9
-0.381, -2.772e-9
-0.374, -2.663e-9
-0.367, -2.562e-9
-0.360, -2.451e-9
-0.353, -2.354e-9
-0.346, -2.256e-9
-0.339, -2.156e-9
-0.332, -2.063e-9
-0.325, -1.970e-9
-0.318, -1.880e-9
-0.311, -1.794e-9
-0.304, -1.702e-9
-0.297, -1.627e-9
-0.290, -1.546e-9
-0.283, -1.462e-9
-0.276, -1.393e-9
-0.269, -1.315e-9
-0.262, -1.240e-9
-0.255, -1.166e-9
-0.248, -1.097e-9
-0.241, -1.032e-9
-0.234, -9.517e-10
-0.227, -8.939e-10
-0.220, -8.339e-10
-0.213, -7.805e-10
-0.206, -7.221e-10
-0.199, -6.623e-10
-0.192, -6.006e-10
-0.185, -5.446e-10
-0.178, -4.837e-10
-0.171, -4.295e-10
-0.164, -3.676e-10
-0.157, -3.217e-10
-0.150, -2.703e-10
-0.143, -2.067e-10
-0.136, -1.642e-10
-0.129, -1.155e-10
-0.122, -6.596e-11
-0.115, -2.102e-11
-0.108, 3.123e-11
-0.101, 7.539e-11
-0.094, 1.212e-10
-0.087, 1.598e-10
-0.080, 1.936e-10
-0.073, 2.407e-10
-0.066, 2.818e-10
-0.059, 3.216e-10
-0.052, 3.645e-10
-0.045, 4.055e-10
-0.038, 4.343e-10
-0.031, 4.855e-10
-0.024, 5.173e-10
-0.017, 5.518e-10
-0.010, 5.849e-10
-0.003, 6.143e-10
0.004, 6.473e-10
0.011, 6.757e-10
0.018, 7.045e-10
0.025, 7.333e-10
0.032, 7.604e-10
0.039, 7.897e-10
0.046, 8.148e-10
0.053, 8.399e-10
0.060, 8.683e-10
0.067, 8.878e-10
0.074, 9.129e-10
0.081, 9.406e-10
0.088, 9.632e-10
0.095, 9.912e-10
0.102, 1.015e-9
0.109, 1.041e-9
0.116, 1.070e-9
0.123, 1.093e-9
0.130, 1.118e-9
0.137, 1.147e-9
0.144, 1.169e-9
0.151, 1.193e-9
0.158, 1.222e-9
0.165, 1.252e-9
0.172, 1.282e-9
0.179, 1.304e-9
0.186, 1.340e-9
0.193, 1.374e-9
0.200, 1.409e-9
0.207, 1.450e-9
0.214, 1.482e-9
0.221, 1.517e-9
0.228, 1.563e-9
0.235, 1.599e-9
0.242, 1.638e-9
0.249, 1.687e-9
0.256, 1.719e-9
0.263, 1.759e-9
0.270, 1.799e-9
0.277, 1.833e-9
0.284, 1.877e-9
0.291, 1.910e-9
0.298, 1.956e-9
0.305, 1.989e-9
0.312, 2.023e-9
0.319, 2.065e-9
0.326, 2.092e-9
0.333, 2.125e-9
0.340, 2.168e-9
0.347, 2.204e-9
0.354, 2.242e-9
0.361, 2.280e-9
0.368, 2.326e-9
0.375, 2.361e-9
0.382, 2.396e-9
0.389, 2.432e-9
0.396, 2.471e-9
0.403, 2.506e-9
0.410, 2.536e-9
0.417, 2.583e-9
0.424, 2.616e-9
0.431, 2.647e-9
0.438, 2.692e-9
0.445, 2.728e-9
0.452, 2.765e-9
0.459, 2.803e-9
0.466, 2.833e-9
0.473, 2.867e-9
0.480, 2.903e-9
0.487, 2.933e-9
0.494, 2.960e-9
0.499, 2.888e-9
0.492, 2.597e-9
0.485, 2.401e-9
0.478, 2.247e-9
0.471, 2.109e-9
0.464, 2.000e-9
0.457, 1.886e-9
0.450, 1.784e-9
0.443, 1.696e-9
0.436, 1.594e-9
0.429, 1.515e-9
0.422, 1.441e-9
0.415, 1.357e-9
0.408, 1.281e-9
0.401, 1.217e-9
0.394, 1.141e-9
0.387, 1.082e-9
0.380, 1.021e-9
0.373, 9.588e-10
0.366, 8.972e-10
0.359, 8.451e-10
0.352, 7.895e-10
0.345, 7.396e-10
0.338, 6.832e-10
0.331, 6.365e-10
0.324, 5.903e-10
0.317, 5.395e-10
0.310, 4.992e-10
0.303, 4.439e-10
0.296, 4.008e-10
0.289, 3.657e-10
0.282, 3.222e-10
0.275, 2.897e-10
0.268, 2.506e-10
0.261, 2.102e-10
0.254, 1.773e-10
0.247, 1.383e-10
0.240, 1.097e-10
0.233, 7.939e-11
0.226, 4.196e-11
0.219, 1.417e-11
0.212, -2.111e-11
0.205, -5.640e-11
0.198, -8.535e-11
0.191, -1.163e-10
0.184, -1.436e-10
0.177, -1.730e-10
0.170, -2.018e-10
0.163, -2.264e-10
0.156, -2.629e-10
0.149, -2.946e-10
0.142, -3.175e-10
0.135, -3.444e-10
0.128, -3.698e-10
0.121, -3.950e-10
0.114, -4.284e-10
0.107, -4.488e-10
0.100, -4.799e-10
0.093, -5.121e-10
0.086, -5.427e-10
0.079, -5.714e-10
0.072, -5.963e-10
0.065, -6.316e-10
0.058, -6.564e-10
0.051, -6.864e-10
0.044, -7.233e-10
0.037, -7.552e-10
0.030, -7.940e-10
0.023, -8.270e-10
0.016, -8.643e-10
0.009, -9.027e-10
0.002, -9.403e-10
-0.005, -9.902e-10
-0.012, -1.037e-9
-0.019, -1.083e-9
-0.026, -1.134e-9
-0.033, -1.184e-9
-0.040, -1.234e-9
-0.047, -1.297e-9
-0.054, -1.351e-9
-0.061, -1.408e-9
-0.068, -1.468e-9
-0.075, -1.540e-9
-0.082, -1.603e-9
-0.089, -1.665e-9
-0.096, -1.739e-9
-0.103, -1.812e-9
-0.110, -1.884e-9
-0.117, -1.962e-9
-0.124, -2.041e-9
-0.131, -2.120e-9
-0.138, -2.197e-9
-0.145, -2.280e-9
-0.152, -2.367e-9
-0.159, -2.447e-9
-0.166, -2.530e-9
-0.173, -2.618e-9
-0.180, -2.694e-9
-0.187, -2.782e-9
-0.194, -2.872e-9
-0.201, -2.952e-9
-0.208, -3.036e-9
-0.215, -3.120e-9
-0.222, -3.201e-9
-0.229, -3.286e-9
-0.236, -3.375e-9
-0.243, -3.465e-9
-0.250, -3.535e-9
-0.257, -3.622e-9
-0.264, -3.716e-9
-0.271, -3.795e-9
-0.278, -3.874e-9
-0.285, -3.968e-9
-0.292, -4.044e-9
-0.299, -4.133e-9
-0.306, -4.223e-9
-0.313, -4.308e-9
-0.320, -4.395e-9
-0.327, -4.480e-9
-0.334, -4.563e-9
-0.341, -4.653e-9
-0.348, -4.751e-9
-0.355, -4.857e-9
-0.362, -4.963e-9
-0.369, -5.075e-9
-0.376, -5.173e-9
-0.383, -5.273e-9
-0.390, -5.365e-9
-0.397, -5.469e-9
-0.404, -5.572e-9
-0.411, -5.679e-9
-0.418, -5.780e-9
-0.425, -5.878e-9
-0.432, -5.990e-9
-0.439, -6.097e-9
-0.446, -6.193e-9
-0.453, -6.294e-9
-0.460, -6.399e-9
-0.467, -6.505e-9
-0.474, -6.608e-9
-0.481, -6.710e-9
-0.488, -6.816e-9
-0.495, -6.916e-9
-0.499, -6.980e-9

File: CV SURFACE (incubation) (2).txt
Mar. 6, 2025   16:06:29
Cyclic Voltammetry
File: cv surface (incubation) (2).bin
Data Source:  Experiment
Instrument Model:  CHI920C
Ref. Electrode:
Header:
Note:

Init E (V) = -0.5
High E (V) = 0.5
Low E (V) = -0.5
Init P/N = P
Scan Rate (V/s) = 0.05
Segment = 2
Sample Interval (V) = 0.001
Quiet Time (sec) = 10
Sensitivity (A/V) = 1e-7

Results:

Channel 1:
Segment 1:

Segment 2:

Potential/V, Current/A

-0.500, -5.202e-9
-0.493, -4.923e-9
-0.486, -4.720e-9
-0.479, -4.523e-9
-0.472, -4.351e-9
-0.465, -4.194e-9
-0.458, -4.028e-9
-0.451, -3.875e-9
-0.444, -3.730e-9
-0.437, -3.583e-9
-0.430, -3.451e-9
-0.423, -3.309e-9
-0.416, -3.178e-9
-0.409, -3.051e-9
-0.402, -2.923e-9
-0.395, -2.800e-9
-0.388, -2.683e-9
-0.381, -2.570e-9
-0.374, -2.452e-9
-0.367, -2.348e-9
-0.360, -2.242e-9
-0.353, -2.133e-9
-0.346, -2.034e-9
-0.339, -1.936e-9
-0.332, -1.839e-9
-0.325, -1.750e-9
-0.318, -1.661e-9
-0.311, -1.580e-9
-0.304, -1.495e-9
-0.297, -1.412e-9
-0.290, -1.340e-9
-0.283, -1.262e-9
-0.276, -1.182e-9
-0.269, -1.117e-9
-0.262, -1.046e-9
-0.255, -9.737e-10
-0.248, -9.138e-10
-0.241, -8.486e-10
-0.234, -7.923e-10
-0.227, -7.301e-10
-0.220, -6.724e-10
-0.213, -6.159e-10
-0.206, -5.620e-10
-0.199, -5.040e-10
-0.192, -4.482e-10
-0.185, -3.982e-10
-0.178, -3.512e-10
-0.171, -3.054e-10
-0.164, -2.530e-10
-0.157, -2.062e-10
-0.150, -1.631e-10
-0.143, -1.055e-10
-0.136, -7.882e-11
-0.129, -4.354e-11
-0.122, 3.279e-11
-0.115, 5.463e-11
-0.108, 9.440e-11
-0.101, 1.410e-10
-0.094, 1.687e-10
-0.087, 2.105e-10
-0.080, 2.464e-10
-0.073, 2.840e-10
-0.066, 3.225e-10
-0.059, 3.516e-10
-0.052, 3.892e-10
-0.045, 4.212e-10
-0.038, 4.505e-10
-0.031, 4.949e-10
-0.024, 5.229e-10
-0.017, 5.566e-10
-0.010, 5.881e-10
-0.003, 6.097e-10
0.004, 6.453e-10
0.011, 6.647e-10
0.018, 6.925e-10
0.025, 7.264e-10
0.032, 7.449e-10
0.039, 7.749e-10
0.046, 8.100e-10
0.053, 8.246e-10
0.060, 8.506e-10
0.067, 8.720e-10
0.074, 8.907e-10
0.081, 9.241e-10
0.088, 9.464e-10
0.095, 9.715e-10
0.102, 9.980e-10
0.109, 1.013e-9
0.116, 1.036e-9
0.123, 1.057e-9
0.130, 1.078e-9
0.137, 1.103e-9
0.144, 1.122e-9
0.151, 1.144e-9
0.158, 1.170e-9
0.165, 1.199e-9
0.172, 1.223e-9
0.179, 1.256e-9
0.186, 1.283e-9
0.193, 1.311e-9
0.200, 1.346e-9
0.207, 1.378e-9
0.214, 1.417e-9
0.221, 1.457e-9
0.228, 1.491e-9
0.235, 1.527e-9
0.242, 1.564e-9
0.249, 1.595e-9
0.256, 1.635e-9
0.263, 1.691e-9
0.270, 1.715e-9
0.277, 1.759e-9
0.284, 1.788e-9
0.291, 1.830e-9
0.298, 1.874e-9
0.305, 1.922e-9
0.312, 1.967e-9
0.319, 2.013e-9
0.326, 2.058e-9
0.333, 2.091e-9
0.340, 2.124e-9
0.347, 2.179e-9
0.354, 2.208e-9
0.361, 2.239e-9
0.368, 2.276e-9
0.375, 2.320e-9
0.382, 2.359e-9
0.389, 2.389e-9
0.396, 2.425e-9
0.403, 2.455e-9
0.410, 2.487e-9
0.417, 2.531e-9
0.424, 2.571e-9
0.431, 2.599e-9
0.438, 2.644e-9
0.445, 2.668e-9
0.452, 2.703e-9
0.459, 2.749e-9
0.466, 2.776e-9
0.473, 2.816e-9
0.480, 2.841e-9
0.487, 2.872e-9
0.494, 2.901e-9
0.499, 2.818e-9
0.492, 2.531e-9
0.485, 2.355e-9
0.478, 2.217e-9
0.471, 2.091e-9
0.464, 1.983e-9
0.457, 1.880e-9
0.450, 1.788e-9
0.443, 1.703e-9
0.436, 1.622e-9
0.429, 1.531e-9
0.422, 1.466e-9
0.415, 1.392e-9
0.408, 1.312e-9
0.401, 1.255e-9
0.394, 1.191e-9
0.387, 1.123e-9
0.380, 1.069e-9
0.373, 1.014e-9
0.366, 9.537e-10
0.359, 8.958e-10
0.352, 8.464e-10
0.345, 7.905e-10
0.338, 7.389e-10
0.331, 6.931e-10
0.324, 6.444e-10
0.317, 6.015e-10
0.310, 5.569e-10
0.303, 5.154e-10
0.296, 4.676e-10
0.289, 4.200e-10
0.282, 3.836e-10
0.275, 3.500e-10
0.268, 3.087e-10
0.261, 2.736e-10
0.254, 2.404e-10
0.247, 1.990e-10
0.240, 1.630e-10
0.233, 1.368e-10
0.226, 1.018e-10
0.219, 7.003e-11
0.212, 4.371e-11
0.205, 8.617e-12
0.198, -2.852e-11
0.191, -5.436e-11
0.184, -8.828e-11
0.177, -1.141e-10
0.170, -1.413e-10
0.163, -1.729e-10
0.156, -1.994e-10
0.149, -2.267e-10
0.142, -2.590e-10
0.135, -2.855e-10
0.128, -3.140e-10
0.121, -3.412e-10
0.114, -3.629e-10
0.107, -3.938e-10
0.100, -4.236e-10
0.093, -4.468e-10
0.086, -4.723e-10
0.079, -5.089e-10
0.072, -5.334e-10
0.065, -5.667e-10
0.058, -5.965e-10
0.051, -6.221e-10
0.044, -6.591e-10
0.037, -6.897e-10
0.030, -7.236e-10
0.023, -7.602e-10
0.016, -7.994e-10
0.009, -8.309e-10
0.002, -8.699e-10
-0.005, -9.131e-10
-0.012, -9.548e-10
-0.019, -9.990e-10
-0.026, -1.050e-9
-0.033, -1.102e-9
-0.040, -1.142e-9
-0.047, -1.192e-9
-0.054, -1.256e-9
-0.061, -1.312e-9
-0.068, -1.362e-9
-0.075, -1.425e-9
-0.082, -1.496e-9
-0.089, -1.556e-9
-0.096, -1.620e-9
-0.103, -1.682e-9
-0.110, -1.758e-9
-0.117, -1.826e-9
-0.124, -1.898e-9
-0.131, -1.977e-9
-0.138, -2.048e-9
-0.145, -2.132e-9
-0.152, -2.211e-9
-0.159, -2.288e-9
-0.166, -2.371e-9
-0.173, -2.451e-9
-0.180, -2.536e-9
-0.187, -2.613e-9
-0.194, -2.698e-9
-0.201, -2.780e-9
-0.208, -2.865e-9
-0.215, -2.943e-9
-0.222, -3.027e-9
-0.229, -3.113e-9
-0.236, -3.194e-9
-0.243, -3.274e-9
-0.250, -3.355e-9
-0.257, -3.445e-9
-0.264, -3.515e-9
-0.271, -3.600e-9
-0.278, -3.690e-9
-0.285, -3.765e-9
-0.292, -3.856e-9
-0.299, -3.937e-9
-0.306, -4.021e-9
-0.313, -4.115e-9
-0.320, -4.208e-9
-0.327, -4.284e-9
-0.334, -4.375e-9
-0.341, -4.466e-9
-0.348, -4.548e-9
-0.355, -4.647e-9
-0.362, -4.759e-9
-0.369, -4.864e-9
-0.376, -4.969e-9
-0.383, -5.079e-9
-0.390, -5.189e-9
-0.397, -5.287e-9
-0.404, -5.393e-9
-0.411, -5.497e-9
-0.418, -5.594e-9
-0.425, -5.707e-9
-0.432, -5.804e-9
-0.439, -5.912e-9
-0.446, -6.016e-9
-0.453, -6.125e-9
-0.460, -6.223e-9
-0.467, -6.325e-9
-0.474, -6.436e-9
-0.481, -6.548e-9
-0.488, -6.656e-9
-0.495, -6.751e-9
-0.499, -6.803e-9

File: CV SURFACE (incubation) (3).txt
Mar. 6, 2025   16:07:37
Cyclic Voltammetry
File: cv surface (incubation) (3).bin
Data Source:  Experiment
Instrument Model:  CHI920C
Ref. Electrode:
Header:
Note:

Init E (V) = -0.5
High E (V) = 0.5
Low E (V) = -0.5
Init P/N = P
Scan Rate (V/s) = 0.05
Segment = 2
Sample Interval (V) = 0.001
Quiet Time (sec) = 10
Sensitivity (A/V) = 1e-7

Results:

Channel 1:
Segment 1:

Segment 2:

Potential/V, Current/A

-0.500, -5.136e-9
-0.493, -4.855e-9
-0.486, -4.655e-9
-0.479, -4.465e-9
-0.472, -4.284e-9
-0.465, -4.121e-9
-0.458, -3.961e-9
-0.451, -3.800e-9
-0.444, -3.654e-9
-0.437, -3.509e-9
-0.430, -3.377e-9
-0.423, -3.235e-9
-0.416, -3.102e-9
-0.409, -2.969e-9
-0.402, -2.845e-9
-0.395, -2.718e-9
-0.388, -2.600e-9
-0.381, -2.487e-9
-0.374, -2.371e-9
-0.367, -2.264e-9
-0.360, -2.153e-9
-0.353, -2.050e-9
-0.346, -1.950e-9
-0.339, -1.851e-9
-0.332, -1.762e-9
-0.325, -1.672e-9
-0.318, -1.585e-9
-0.311, -1.501e-9
-0.304, -1.419e-9
-0.297, -1.336e-9
-0.290, -1.261e-9
-0.283, -1.187e-9
-0.276, -1.115e-9
-0.269, -1.047e-9
-0.262, -9.770e-10
-0.255, -9.127e-10
-0.248, -8.477e-10
-0.241, -7.925e-10
-0.234, -7.308e-10
-0.227, -6.741e-10
-0.220, -6.199e-10
-0.213, -5.639e-10
-0.206, -5.111e-10
-0.199, -4.492e-10
-0.192, -4.034e-10
-0.185, -3.579e-10
-0.178, -3.077e-10
-0.171, -2.566e-10
-0.164, -2.110e-10
-0.157, -1.645e-10
-0.150, -1.240e-10
-0.143, -8.175e-11
-0.136, -3.593e-11
-0.129, 6.960e-12
-0.122, 5.053e-11
-0.115, 8.777e-11
-0.108, 1.250e-10
-0.101, 1.629e-10
-0.094, 1.967e-10
-0.087, 2.348e-10
-0.080, 2.721e-10
-0.073, 3.067e-10
-0.066, 3.327e-10
-0.059, 3.700e-10
-0.052, 4.022e-10
-0.045, 4.288e-10
-0.038, 4.662e-10
-0.031, 5.040e-10
-0.024, 5.284e-10
-0.017, 5.581e-10
-0.010, 5.919e-10
-0.003, 6.145e-10
0.004, 6.431e-10
0.011, 6.689e-10
0.018, 6.938e-10
0.025, 7.236e-10
0.032, 7.454e-10
0.039, 7.711e-10
0.046, 7.949e-10
0.053, 8.236e-10
0.060, 8.430e-10
0.067, 8.692e-10
0.074, 8.881e-10
0.081, 9.133e-10
0.088, 9.411e-10
0.095, 9.558e-10
0.102, 9.831e-10
0.109, 1.004e-9
0.116, 1.019e-9
0.123, 1.044e-9
0.130, 1.063e-9
0.137, 1.077e-9
0.144, 1.113e-9
0.151, 1.142e-9
0.158, 1.164e-9
0.165, 1.184e-9
0.172, 1.208e-9
0.179, 1.235e-9
0.186, 1.263e-9
0.193, 1.279e-9
0.200, 1.303e-9
0.207, 1.335e-9
0.214, 1.370e-9
0.221, 1.411e-9
0.228, 1.455e-9
0.235, 1.496e-9
0.242, 1.521e-9
0.249, 1.558e-9
0.256, 1.594e-9
0.263, 1.627e-9
0.270, 1.676e-9
0.277, 1.713e-9
0.284, 1.746e-9
0.291, 1.793e-9
0.298, 1.840e-9
0.305, 1.868e-9
0.312, 1.913e-9
0.319, 1.954e-9
0.326, 1.986e-9
0.333, 2.023e-9
0.340, 2.062e-9
0.347, 2.107e-9
0.354, 2.139e-9
0.361, 2.193e-9
0.368, 2.225e-9
0.375, 2.258e-9
0.382, 2.302e-9
0.389, 2.338e-9
0.396, 2.378e-9
0.403, 2.416e-9
0.410, 2.451e-9
0.417, 2.486e-9
0.424, 2.519e-9
0.431, 2.566e-9
0.438, 2.588e-9
0.445, 2.617e-9
0.452, 2.664e-9
0.459, 2.694e-9
0.466, 2.738e-9
0.473, 2.767e-9
0.480, 2.796e-9
0.487, 2.831e-9
0.494, 2.851e-9
0.499, 2.775e-9
0.492, 2.486e-9
0.485, 2.306e-9
0.478, 2.179e-9
0.471, 2.071e-9
0.464, 1.965e-9
0.457, 1.868e-9
0.450, 1.782e-9
0.443, 1.695e-9
0.436, 1.618e-9
0.429, 1.544e-9
0.422, 1.462e-9
0.415, 1.392e-9
0.408, 1.332e-9
0.401, 1.261e-9
0.394, 1.199e-9
0.387, 1.137e-9
0.380, 1.083e-9
0.373, 1.027e-9
0.366, 9.705e-10
0.359, 9.172e-10
0.352, 8.694e-10
0.345, 8.093e-10
0.338, 7.677e-10
0.331, 7.209e-10
0.324, 6.668e-10
0.317, 6.309e-10
0.310, 5.918e-10
0.303, 5.392e-10
0.296, 5.012e-10
0.289, 4.557e-10
0.282, 4.092e-10
0.275, 3.737e-10
0.268, 3.387e-10
0.261, 3.037e-10
0.254, 2.663e-10
0.247, 2.276e-10
0.240, 1.964e-10
0.233, 1.625e-10
0.226, 1.294e-10
0.219, 1.047e-10
0.212, 7.081e-11
0.205, 3.708e-11
0.198, 1.086e-11
0.191, -2.180e-11
0.184, -5.143e-11
0.177, -8.389e-11
0.170, -1.081e-10
0.163, -1.365e-10
0.156, -1.663e-10
0.149, -1.896e-10
0.142, -2.159e-10
0.135, -2.508e-10
0.128, -2.762e-10
0.121, -3.019e-10
0.114, -3.341e-10
0.107, -3.550e-10
0.100, -3.799e-10
0.093, -4.095e-10
0.086, -4.363e-10
0.079, -4.625e-10
0.072, -4.887e-10
0.065, -5.236e-10
0.058, -5.572e-10
0.051, -5.807e-10
0.044, -6.111e-10
0.037, -6.456e-10
0.030, -6.734e-10
0.023, -7.078e-10
0.016, -7.472e-10
0.009, -7.823e-10
0.002, -8.171e-10
-0.005, -8.557e-10
-0.012, -8.951e-10
-0.019, -9.378e-10
-0.026, -9.837e-10
-0.033, -1.033e-9
-0.040, -1.078e-9
-0.047, -1.122e-9
-0.054, -1.175e-9
-0.061, -1.232e-9
-0.068, -1.289e-9
-0.075, -1.344e-9
-0.082, -1.402e-9
-0.089, -1.460e-9
-0.096, -1.533e-9
-0.103, -1.593e-9
-0.110, -1.658e-9
-0.117, -1.729e-9
-0.124, -1.793e-9
-0.131, -1.867e-9
-0.138, -1.943e-9
-0.145, -2.017e-9
-0.152, -2.095e-9
-0.159, -2.169e-9
-0.166, -2.250e-9
-0.173, -2.327e-9
-0.180, -2.405e-9
-0.187, -2.493e-9
-0.194, -2.574e-9
-0.201, -2.656e-9
-0.208, -2.740e-9
-0.215, -2.819e-9
-0.222, -2.901e-9
-0.229, -2.978e-9
-0.236, -3.065e-9
-0.243, -3.142e-9
-0.250, -3.226e-9
-0.257, -3.310e-9
-0.264, -3.400e-9
-0.271, -3.482e-9
-0.278, -3.554e-9
-0.285, -3.650e-9
-0.292, -3.737e-9
-0.299, -3.814e-9
-0.306, -3.912e-9
-0.313, -3.998e-9
-0.320, -4.079e-9
-0.327, -4.181e-9
-0.334, -4.266e-9
-0.341, -4.348e-9
-0.348, -4.440e-9
-0.355, -4.537e-9
-0.362, -4.645e-9
-0.369, -4.753e-9
-0.376, -4.868e-9
-0.383, -4.967e-9
-0.390, -5.074e-9
-0.397, -5.184e-9
-0.404, -5.286e-9
-0.411, -5.388e-9
-0.418, -5.493e-9
-0.425, -5.593e-9
-0.432, -5.702e-9
-0.439, -5.794e-9
-0.446, -5.897e-9
-0.453, -5.998e-9
-0.460, -6.111e-9
-0.467, -6.209e-9
-0.474, -6.307e-9
-0.481, -6.420e-9
-0.488, -6.517e-9
-0.495, -6.629e-9
-0.499, -6.690e-9

File: CV SURFACE (incubation) (4).txt
Mar. 6, 2025   16:08:43
Cyclic Voltammetry
File: cv surface (incubation) (4).bin
Data Source:  Experiment
Instrument Model:  CHI920C
Ref. Electrode:
Header:
Note:

Init E (V) = -0.5
High E (V) = 0.5
Low E (V) = -0.5
Init P/N = P
Scan Rate (V/s) = 0.05
Segment = 2
Sample Interval (V) = 0.001
Quiet Time (sec) = 10
Sensitivity (A/V) = 1e-7

Results:

Channel 1:
Segment 1:

Segment 2:

Potential/V, Current/A

-0.500, -5.091e-9
-0.493, -4.812e-9
-0.486, -4.590e-9
-0.479, -4.403e-9
-0.472, -4.236e-9
-0.465, -4.057e-9
-0.458, -3.906e-9
-0.451, -3.754e-9
-0.444, -3.605e-9
-0.437, -3.469e-9
-0.430, -3.330e-9
-0.423, -3.195e-9
-0.416, -3.061e-9
-0.409, -2.933e-9
-0.402, -2.809e-9
-0.395, -2.685e-9
-0.388, -2.565e-9
-0.381, -2.453e-9
-0.374, -2.340e-9
-0.367, -2.232e-9
-0.360, -2.131e-9
-0.353, -2.023e-9
-0.346, -1.924e-9
-0.339, -1.825e-9
-0.332, -1.734e-9
-0.325, -1.649e-9
-0.318, -1.562e-9
-0.311, -1.475e-9
-0.304, -1.397e-9
-0.297, -1.318e-9
-0.290, -1.240e-9
-0.283, -1.168e-9
-0.276, -1.098e-9
-0.269, -1.028e-9
-0.262, -9.604e-10
-0.255, -8.932e-10
-0.248, -8.351e-10
-0.241, -7.819e-10
-0.234, -7.235e-10
-0.227, -6.681e-10
-0.220, -6.076e-10
-0.213, -5.600e-10
-0.206, -5.071e-10
-0.199, -4.489e-10
-0.192, -4.074e-10
-0.185, -3.565e-10
-0.178, -3.099e-10
-0.171, -2.679e-10
-0.164, -2.162e-10
-0.157, -1.711e-10
-0.150, -1.319e-10
-0.143, -9.364e-11
-0.136, -4.958e-11
-0.129, -1.185e-11
-0.122, 2.646e-11
-0.115, 6.272e-11
-0.108, 9.411e-11
-0.101, 1.309e-10
-0.094, 1.649e-10
-0.087, 1.933e-10
-0.080, 2.304e-10
-0.073, 2.645e-10
-0.066, 2.956e-10
-0.059, 3.193e-10
-0.052, 3.505e-10
-0.045, 3.818e-10
-0.038, 4.079e-10
-0.031, 4.355e-10
-0.024, 4.637e-10
-0.017, 5.063e-10
-0.010, 5.311e-10
-0.003, 5.560e-10
0.004, 5.924e-10
0.011, 6.148e-10
0.018, 6.443e-10
0.025, 6.673e-10
0.032, 6.884e-10
0.039, 7.062e-10
0.046, 7.286e-10
0.053, 7.533e-10
0.060, 7.811e-10
0.067, 8.351e-10
0.074, 8.467e-10
0.081, 8.717e-10
0.088, 8.997e-10
0.095, 9.217e-10
0.102, 9.530e-10
0.109, 9.772e-10
0.116, 9.810e-10
0.123, 1.002e-9
0.130, 1.020e-9
0.137, 1.035e-9
0.144, 1.056e-9
0.151, 1.079e-9
0.158, 1.098e-9
0.165, 1.133e-9
0.172, 1.151e-9
0.179, 1.176e-9
0.186, 1.205e-9
0.193, 1.250e-9
0.200, 1.284e-9
0.207, 1.304e-9
0.214, 1.338e-9
0.221, 1.360e-9
0.228, 1.398e-9
0.235, 1.459e-9
0.242, 1.494e-9
0.249, 1.532e-9
0.256, 1.575e-9
0.263, 1.613e-9
0.270, 1.643e-9
0.277, 1.687e-9
0.284, 1.732e-9
0.291, 1.765e-9
0.298, 1.802e-9
0.305, 1.852e-9
0.312, 1.887e-9
0.319, 1.936e-9
0.326, 1.970e-9
0.333, 2.004e-9
0.340, 2.040e-9
0.347, 2.081e-9
0.354, 2.117e-9
0.361, 2.158e-9
0.368, 2.210e-9
0.375, 2.251e-9
0.382, 2.281e-9
0.389, 2.307e-9
0.396, 2.351e-9
0.403, 2.385e-9
0.410, 2.418e-9
0.417, 2.460e-9
0.424, 2.491e-9
0.431, 2.543e-9
0.438, 2.579e-9
0.445, 2.612e-9
0.452, 2.653e-9
0.459, 2.697e-9
0.466, 2.738e-9
0.473, 2.769e-9
0.480, 2.796e-9
0.487, 2.825e-9
0.494, 2.869e-9
0.499, 2.788e-9
0.492, 2.497e-9
0.485, 2.320e-9
0.478, 2.178e-9
0.471, 2.068e-9
0.464, 1.977e-9
0.457, 1.879e-9
0.450, 1.794e-9
0.443, 1.717e-9
0.436, 1.643e-9
0.429, 1.569e-9
0.422, 1.499e-9
0.415, 1.428e-9
0.408, 1.365e-9
0.401, 1.292e-9
0.394, 1.240e-9
0.387, 1.176e-9
0.380, 1.120e-9
0.373, 1.072e-9
0.366, 1.015e-9
0.359, 9.574e-10
0.352, 9.051e-10
0.345, 8.536e-10
0.338, 8.020e-10
0.331, 7.549e-10
0.324, 7.094e-10
0.317, 6.637e-10
0.310, 6.202e-10
0.303, 5.770e-10
0.296, 5.384e-10
0.289, 4.956e-10
0.282, 4.528e-10
0.275, 4.124e-10
0.268, 3.773e-10
0.261, 3.443e-10
0.254, 3.103e-10
0.247, 2.755e-10
0.240, 2.438e-10
0.233, 2.116e-10
0.226, 1.730e-10
0.219, 1.495e-10
0.212, 1.201e-10
0.205, 8.884e-11
0.198, 6.379e-11
0.191, 3.318e-11
0.184, 6.863e-12
0.177, -2.336e-11
0.170, -5.562e-11
0.163, -8.799e-11
0.156, -1.071e-10
0.149, -1.376e-10
0.142, -1.655e-10
0.135, -1.877e-10
0.128, -2.177e-10
0.121, -2.441e-10
0.114, -2.730e-10
0.107, -3.016e-10
0.100, -3.283e-10
0.093, -3.512e-10
0.086, -3.743e-10
0.079, -4.061e-10
0.072, -4.339e-10
0.065, -4.553e-10
0.058, -4.867e-10
0.051, -5.239e-10
0.044, -5.497e-10
0.037, -5.810e-10
0.030, -6.169e-10
0.023, -6.420e-10
0.016, -6.799e-10
0.009, -7.123e-10
0.002, -7.475e-10
-0.005, -7.910e-10
-0.012, -8.226e-10
-0.019, -8.667e-10
-0.026, -9.064e-10
-0.033, -9.469e-10
-0.040, -1.005e-9
-0.047, -1.047e-9
-0.054, -1.095e-9
-0.061, -1.151e-9
-0.068, -1.201e-9
-0.075, -1.262e-9
-0.082, -1.317e-9
-0.089, -1.374e-9
-0.096, -1.437e-9
-0.103, -1.503e-9
-0.110, -1.570e-9
-0.117, -1.637e-9
-0.124, -1.698e-9
-0.131, -1.772e-9
-0.138, -1.841e-9
-0.145, -1.917e-9
-0.152, -1.996e-9
-0.159, -2.066e-9
-0.166, -2.148e-9
-0.173, -2.225e-9
-0.180, -2.302e-9
-0.187, -2.387e-9
-0.194, -2.464e-9
-0.201, -2.548e-9
-0.208, -2.632e-9
-0.215, -2.709e-9
-0.222, -2.792e-9
-0.229, -2.878e-9
-0.236, -2.958e-9
-0.243, -3.043e-9
-0.250, -3.124e-9
-0.257, -3.201e-9
-0.264, -3.286e-9
-0.271, -3.375e-9
-0.278, -3.464e-9
-0.285, -3.537e-9
-0.292, -3.626e-9
-0.299, -3.722e-9
-0.306, -3.792e-9
-0.313, -3.887e-9
-0.320, -3.993e-9
-0.327, -4.068e-9
-0.334, -4.161e-9
-0.341, -4.253e-9
-0.348, -4.346e-9
-0.355, -4.453e-9
-0.362, -4.554e-9
-0.369, -4.677e-9
-0.376, -4.780e-9
-0.383, -4.891e-9
-0.390, -4.994e-9
-0.397, -5.101e-9
-0.404, -5.209e-9
-0.411, -5.314e-9
-0.418, -5.431e-9
-0.425, -5.528e-9
-0.432, -5.616e-9
-0.439, -5.719e-9
-0.446, -5.814e-9
-0.453, -5.936e-9
-0.460, -6.046e-9
-0.467, -6.148e-9
-0.474, -6.251e-9
-0.481, -6.369e-9
-0.488, -6.482e-9
-0.495, -6.571e-9
-0.499, -6.623e-9