Folder: Bioelectricity-generation-by-Symbiodinium-microadriaticum/Supplementary Fig 4/Fig S4e Surface CV +DCMU (part 2)

File: CV SURFACE INCUBATED 5.txt
Mar. 7, 2025   14:38:13
Cyclic Voltammetry
File: cv surface incubated 5.bin
Data Source:  Experiment
Instrument Model:  CHI920C
Ref. Electrode:
Header:
Note:

Init E (V) = -0.5
High E (V) = 0.5
Low E (V) = -0.5
Init P/N = P
Scan Rate (V/s) = 0.05
Segment = 2
Sample Interval (V) = 0.001
Quiet Time (sec) = 10
Sensitivity (A/V) = 1e-8

Results:

Channel 1:
Segment 1:

Segment 2:

Potential/V, Current/A

-0.500, -1.990e-9
-0.493, -1.725e-9
-0.486, -1.609e-9
-0.479, -1.510e-9
-0.472, -1.421e-9
-0.465, -1.340e-9
-0.458, -1.262e-9
-0.451, -1.190e-9
-0.444, -1.118e-9
-0.437, -1.051e-9
-0.430, -9.865e-10
-0.423, -9.209e-10
-0.416, -8.600e-10
-0.409, -7.994e-10
-0.402, -7.399e-10
-0.395, -6.831e-10
-0.388, -6.262e-10
-0.381, -5.710e-10
-0.374, -5.175e-10
-0.367, -4.644e-10
-0.360, -4.126e-10
-0.353, -3.624e-10
-0.346, -3.128e-10
-0.339, -2.642e-10
-0.332, -2.174e-10
-0.325, -1.694e-10
-0.318, -1.241e-10
-0.311, -7.895e-11
-0.304, -3.447e-11
-0.297, 1.034e-11
-0.290, 5.283e-11
-0.283, 9.455e-11
-0.276, 1.361e-10
-0.269, 1.763e-10
-0.262, 2.157e-10
-0.255, 2.557e-10
-0.248, 2.947e-10
-0.241, 3.322e-10
-0.234, 3.721e-10
-0.227, 4.072e-10
-0.220, 4.451e-10
-0.213, 4.821e-10
-0.206, 5.184e-10
-0.199, 5.539e-10
-0.192, 5.885e-10
-0.185, 6.249e-10
-0.178, 6.573e-10
-0.171, 6.936e-10
-0.164, 7.261e-10
-0.157, 7.617e-10
-0.150, 7.949e-10
-0.143, 8.304e-10
-0.136, 8.637e-10
-0.129, 8.978e-10
-0.122, 9.324e-10
-0.115, 9.651e-10
-0.108, 9.985e-10
-0.101, 1.034e-9
-0.094, 1.067e-9
-0.087, 1.100e-9
-0.080, 1.134e-9
-0.073, 1.167e-9
-0.066, 1.201e-9
-0.059, 1.234e-9
-0.052, 1.268e-9
-0.045, 1.303e-9
-0.038, 1.335e-9
-0.031, 1.372e-9
-0.024, 1.404e-9
-0.017, 1.440e-9
-0.010, 1.474e-9
-0.003, 1.507e-9
0.004, 1.541e-9
0.011, 1.576e-9
0.018, 1.612e-9
0.025, 1.647e-9
0.032, 1.682e-9
0.039, 1.717e-9
0.046, 1.753e-9
0.053, 1.788e-9
0.060, 1.825e-9
0.067, 1.862e-9
0.074, 1.899e-9
0.081, 1.937e-9
0.088, 1.977e-9
0.095, 2.018e-9
0.102, 2.071e-9
0.109, 2.114e-9
0.116, 2.149e-9
0.123, 2.186e-9
0.130, 2.231e-9
0.137, 2.276e-9
0.144, 2.323e-9
0.151, 2.373e-9
0.158, 2.422e-9
0.165, 2.475e-9
0.172, 2.527e-9
0.179, 2.580e-9
0.186, 2.632e-9
0.193, 2.682e-9
0.200, 2.737e-9
0.207, 2.782e-9
0.214, 2.831e-9
0.221, 2.879e-9
0.228, 2.929e-9
0.235, 2.976e-9
0.242, 3.024e-9
0.249, 3.069e-9
0.256, 3.113e-9
0.263, 3.157e-9
0.270, 3.199e-9
0.277, 3.241e-9
0.284, 3.282e-9
0.291, 3.323e-9
0.298, 3.363e-9
0.305, 3.403e-9
0.312, 3.444e-9
0.319, 3.482e-9
0.326, 3.518e-9
0.333, 3.556e-9
0.340, 3.593e-9
0.347, 3.629e-9
0.354, 3.667e-9
0.361, 3.704e-9
0.368, 3.742e-9
0.375, 3.779e-9
0.382, 3.819e-9
0.389, 3.858e-9
0.396, 3.897e-9
0.403, 3.939e-9
0.410, 3.973e-9
0.417, 4.024e-9
0.424, 4.067e-9
0.431, 4.111e-9
0.438, 4.151e-9
0.445, 4.193e-9
0.452, 4.234e-9
0.459, 4.274e-9
0.466, 4.319e-9
0.473, 4.365e-9
0.480, 4.412e-9
0.487, 4.459e-9
0.494, 4.513e-9
0.499, 4.324e-9
0.492, 3.844e-9
0.485, 3.554e-9
0.478, 3.323e-9
0.471, 3.123e-9
0.464, 2.944e-9
0.457, 2.784e-9
0.450, 2.635e-9
0.443, 2.496e-9
0.436, 2.365e-9
0.429, 2.240e-9
0.422, 2.123e-9
0.415, 2.007e-9
0.408, 1.903e-9
0.401, 1.794e-9
0.394, 1.692e-9
0.387, 1.593e-9
0.380, 1.497e-9
0.373, 1.405e-9
0.366, 1.310e-9
0.359, 1.217e-9
0.352, 1.133e-9
0.345, 1.045e-9
0.338, 9.570e-10
0.331, 8.814e-10
0.324, 8.042e-10
0.317, 7.229e-10
0.310, 6.479e-10
0.303, 5.727e-10
0.296, 5.033e-10
0.289, 4.350e-10
0.282, 3.673e-10
0.275, 3.030e-10
0.268, 2.399e-10
0.261, 1.805e-10
0.254, 1.240e-10
0.247, 7.258e-11
0.240, 2.358e-11
0.233, -2.477e-11
0.226, -6.919e-11
0.219, -1.114e-10
0.212, -1.512e-10
0.205, -1.865e-10
0.198, -2.231e-10
0.191, -2.560e-10
0.184, -2.862e-10
0.177, -3.231e-10
0.170, -3.535e-10
0.163, -3.869e-10
0.156, -4.143e-10
0.149, -4.420e-10
0.142, -4.772e-10
0.135, -5.078e-10
0.128, -5.397e-10
0.121, -5.761e-10
0.114, -5.970e-10
0.107, -6.428e-10
0.100, -6.781e-10
0.093, -7.062e-10
0.086, -7.382e-10
0.079, -7.782e-10
0.072, -8.123e-10
0.065, -8.498e-10
0.058, -8.875e-10
0.051, -9.277e-10
0.044, -9.669e-10
0.037, -1.008e-9
0.030, -1.050e-9
0.023, -1.091e-9
0.016, -1.133e-9
0.009, -1.176e-9
0.002, -1.220e-9
-0.005, -1.259e-9
-0.012, -1.311e-9
-0.019, -1.354e-9
-0.026, -1.403e-9
-0.033, -1.456e-9
-0.040, -1.511e-9
-0.047, -1.561e-9
-0.054, -1.587e-9
-0.061, -1.621e-9
-0.068, -1.660e-9
-0.075, -1.704e-9
-0.082, -1.742e-9
-0.089, -1.789e-9
-0.096, -1.828e-9
-0.103, -1.874e-9
-0.110, -1.912e-9
-0.117, -1.951e-9
-0.124, -1.991e-9
-0.131, -2.029e-9
-0.138, -2.069e-9
-0.145, -2.104e-9
-0.152, -2.142e-9
-0.159, -2.181e-9
-0.166, -2.216e-9
-0.173, -2.255e-9
-0.180, -2.294e-9
-0.187, -2.329e-9
-0.194, -2.367e-9
-0.201, -2.406e-9
-0.208, -2.439e-9
-0.215, -2.477e-9
-0.222, -2.511e-9
-0.229, -2.547e-9
-0.236, -2.583e-9
-0.243, -2.618e-9
-0.250, -2.654e-9
-0.257, -2.688e-9
-0.264, -2.723e-9
-0.271, -2.759e-9
-0.278, -2.795e-9
-0.285, -2.829e-9
-0.292, -2.866e-9
-0.299, -2.907e-9
-0.306, -2.941e-9
-0.313, -2.977e-9
-0.320, -3.013e-9
-0.327, -3.049e-9
-0.334, -3.084e-9
-0.341, -3.120e-9
-0.348, -3.155e-9
-0.355, -3.194e-9
-0.362, -3.229e-9
-0.369, -3.267e-9
-0.376, -3.305e-9
-0.383, -3.343e-9
-0.390, -3.381e-9
-0.397, -3.417e-9
-0.404, -3.458e-9
-0.411, -3.496e-9
-0.418, -3.537e-9
-0.425, -3.577e-9
-0.432, -3.619e-9
-0.439, -3.658e-9
-0.446, -3.702e-9
-0.453, -3.744e-9
-0.460, -3.787e-9
-0.467, -3.836e-9
-0.474, -3.879e-9
-0.481, -3.926e-9
-0.488, -3.973e-9
-0.495, -4.021e-9
-0.499, -4.048e-9

File: CV SURFACE INCUBATED 6.txt
Mar. 7, 2025   14:39:18
Cyclic Voltammetry
File: cv surface incubated 6.bin
Data Source:  Experiment
Instrument Model:  CHI920C
Ref. Electrode:
Header:
Note:

Init E (V) = -0.5
High E (V) = 0.5
Low E (V) = -0.5
Init P/N = P
Scan Rate (V/s) = 0.05
Segment = 2
Sample Interval (V) = 0.001
Quiet Time (sec) = 10
Sensitivity (A/V) = 1e-8

Results:

Channel 1:
Segment 1:

Segment 2:

Potential/V, Current/A

-0.500, -1.977e-9
-0.493, -1.712e-9
-0.486, -1.595e-9
-0.479, -1.496e-9
-0.472, -1.407e-9
-0.465, -1.327e-9
-0.458, -1.250e-9
-0.451, -1.177e-9
-0.444, -1.108e-9
-0.437, -1.040e-9
-0.430, -9.737e-10
-0.423, -9.096e-10
-0.416, -8.473e-10
-0.409, -7.892e-10
-0.402, -7.311e-10
-0.395, -6.763e-10
-0.388, -6.190e-10
-0.381, -5.651e-10
-0.374, -5.118e-10
-0.367, -4.586e-10
-0.360, -4.074e-10
-0.353, -3.582e-10
-0.346, -3.099e-10
-0.339, -2.612e-10
-0.332, -2.137e-10
-0.325, -1.656e-10
-0.318, -1.207e-10
-0.311, -7.628e-11
-0.304, -3.183e-11
-0.297, 1.123e-11
-0.290, 5.395e-11
-0.283, 9.637e-11
-0.276, 1.380e-10
-0.269, 1.790e-10
-0.262, 2.177e-10
-0.255, 2.570e-10
-0.248, 2.971e-10
-0.241, 3.341e-10
-0.234, 3.718e-10
-0.227, 4.095e-10
-0.220, 4.450e-10
-0.213, 4.822e-10
-0.206, 5.185e-10
-0.199, 5.533e-10
-0.192, 5.905e-10
-0.185, 6.251e-10
-0.178, 6.595e-10
-0.171, 6.940e-10
-0.164, 7.279e-10
-0.157, 7.623e-10
-0.150, 7.954e-10
-0.143, 8.296e-10
-0.136, 8.633e-10
-0.129, 8.971e-10
-0.122, 9.318e-10
-0.115, 9.643e-10
-0.108, 9.993e-10
-0.101, 1.034e-9
-0.094, 1.066e-9
-0.087, 1.101e-9
-0.080, 1.134e-9
-0.073, 1.166e-9
-0.066, 1.202e-9
-0.059, 1.235e-9
-0.052, 1.269e-9
-0.045, 1.303e-9
-0.038, 1.336e-9
-0.031, 1.372e-9
-0.024, 1.406e-9
-0.017, 1.440e-9
-0.010, 1.476e-9
-0.003, 1.509e-9
0.004, 1.543e-9
0.011, 1.578e-9
0.018, 1.614e-9
0.025, 1.649e-9
0.032, 1.684e-9
0.039, 1.720e-9
0.046, 1.755e-9
0.053, 1.790e-9
0.060, 1.826e-9
0.067, 1.862e-9
0.074, 1.900e-9
0.081, 1.939e-9
0.088, 1.977e-9
0.095, 2.019e-9
0.102, 2.066e-9
0.109, 2.113e-9
0.116, 2.144e-9
0.123, 2.181e-9
0.130, 2.225e-9
0.137, 2.272e-9
0.144, 2.318e-9
0.151, 2.367e-9
0.158, 2.417e-9
0.165, 2.468e-9
0.172, 2.520e-9
0.179, 2.575e-9
0.186, 2.627e-9
0.193, 2.678e-9
0.200, 2.728e-9
0.207, 2.773e-9
0.214, 2.821e-9
0.221, 2.869e-9
0.228, 2.916e-9
0.235, 2.961e-9
0.242, 3.006e-9
0.249, 3.053e-9
0.256, 3.097e-9
0.263, 3.140e-9
0.270, 3.182e-9
0.277, 3.223e-9
0.284, 3.265e-9
0.291, 3.302e-9
0.298, 3.343e-9
0.305, 3.379e-9
0.312, 3.419e-9
0.319, 3.458e-9
0.326, 3.491e-9
0.333, 3.527e-9
0.340, 3.566e-9
0.347, 3.600e-9
0.354, 3.639e-9
0.361, 3.676e-9
0.368, 3.712e-9
0.375, 3.750e-9
0.382, 3.788e-9
0.389, 3.826e-9
0.396, 3.867e-9
0.403, 3.910e-9
0.410, 3.945e-9
0.417, 3.994e-9
0.424, 4.035e-9
0.431, 4.079e-9
0.438, 4.118e-9
0.445, 4.159e-9
0.452, 4.198e-9
0.459, 4.238e-9
0.466, 4.281e-9
0.473, 4.324e-9
0.480, 4.369e-9
0.487, 4.417e-9
0.494, 4.471e-9
0.499, 4.283e-9
0.492, 3.807e-9
0.485, 3.524e-9
0.478, 3.295e-9
0.471, 3.098e-9
0.464, 2.925e-9
0.457, 2.765e-9
0.450, 2.619e-9
0.443, 2.484e-9
0.436, 2.351e-9
0.429, 2.234e-9
0.422, 2.114e-9
0.415, 2.003e-9
0.408, 1.894e-9
0.401, 1.788e-9
0.394, 1.687e-9
0.387, 1.589e-9
0.380, 1.493e-9
0.373, 1.400e-9
0.366, 1.310e-9
0.359, 1.220e-9
0.352, 1.136e-9
0.345, 1.051e-9
0.338, 9.716e-10
0.331, 8.858e-10
0.324, 8.002e-10
0.317, 7.325e-10
0.310, 6.570e-10
0.303, 5.822e-10
0.296, 5.115e-10
0.289, 4.444e-10
0.282, 3.785e-10
0.275, 3.155e-10
0.268, 2.543e-10
0.261, 1.962e-10
0.254, 1.384e-10
0.247, 8.742e-11
0.240, 3.813e-11
0.233, -8.701e-12
0.226, -5.241e-11
0.219, -9.581e-11
0.212, -1.365e-10
0.205, -1.701e-10
0.198, -2.069e-10
0.191, -2.422e-10
0.184, -2.748e-10
0.177, -3.074e-10
0.170, -3.391e-10
0.163, -3.678e-10
0.156, -3.991e-10
0.149, -4.287e-10
0.142, -4.597e-10
0.135, -4.895e-10
0.128, -5.236e-10
0.121, -5.491e-10
0.114, -5.851e-10
0.107, -6.210e-10
0.100, -6.536e-10
0.093, -6.873e-10
0.086, -7.186e-10
0.079, -7.569e-10
0.072, -7.940e-10
0.065, -8.322e-10
0.058, -8.697e-10
0.051, -9.079e-10
0.044, -9.495e-10
0.037, -9.926e-10
0.030, -1.032e-9
0.023, -1.074e-9
0.016, -1.116e-9
0.009, -1.161e-9
0.002, -1.204e-9
-0.005, -1.247e-9
-0.012, -1.292e-9
-0.019, -1.342e-9
-0.026, -1.388e-9
-0.033, -1.438e-9
-0.040, -1.488e-9
-0.047, -1.546e-9
-0.054, -1.571e-9
-0.061, -1.613e-9
-0.068, -1.650e-9
-0.075, -1.696e-9
-0.082, -1.737e-9
-0.089, -1.779e-9
-0.096, -1.822e-9
-0.103, -1.871e-9
-0.110, -1.907e-9
-0.117, -1.945e-9
-0.124, -1.986e-9
-0.131, -2.024e-9
-0.138, -2.062e-9
-0.145, -2.100e-9
-0.152, -2.139e-9
-0.159, -2.178e-9
-0.166, -2.215e-9
-0.173, -2.254e-9
-0.180, -2.289e-9
-0.187, -2.326e-9
-0.194, -2.363e-9
-0.201, -2.399e-9
-0.208, -2.437e-9
-0.215, -2.473e-9
-0.222, -2.511e-9
-0.229, -2.548e-9
-0.236, -2.583e-9
-0.243, -2.618e-9
-0.250, -2.652e-9
-0.257, -2.689e-9
-0.264, -2.724e-9
-0.271, -2.760e-9
-0.278, -2.797e-9
-0.285, -2.831e-9
-0.292, -2.868e-9
-0.299, -2.903e-9
-0.306, -2.936e-9
-0.313, -2.973e-9
-0.320, -3.008e-9
-0.327, -3.047e-9
-0.334, -3.083e-9
-0.341, -3.118e-9
-0.348, -3.153e-9
-0.355, -3.195e-9
-0.362, -3.235e-9
-0.369, -3.269e-9
-0.376, -3.305e-9
-0.383, -3.343e-9
-0.390, -3.382e-9
-0.397, -3.421e-9
-0.404, -3.461e-9
-0.411, -3.501e-9
-0.418, -3.539e-9
-0.425, -3.579e-9
-0.432, -3.620e-9
-0.439, -3.661e-9
-0.446, -3.703e-9
-0.453, -3.745e-9
-0.460, -3.792e-9
-0.467, -3.837e-9
-0.474, -3.882e-9
-0.481, -3.929e-9
-0.488, -3.977e-9
-0.495, -4.024e-9
-0.499, -4.053e-9

File: CV SURFACE INCUBATED 7.txt
Mar. 7, 2025   14:39:29
Cyclic Voltammetry
File: cv surface incubated 7.bin
Instrument Model:  CHI920C
Ref. Electrode:
Header:
Note:

Init E (V) = -0.5
High E (V) = 0.5
Low E (V) = -0.5
Init P/N = P
Scan Rate (V/s) = 0.05
Segment = 2
Sample Interval (V) = 0.001
Quiet Time (sec) = 10
Sensitivity (A/V) = 1e-8

Results:

Channel 1:
Segment 1:

Segment 2:

Potential/V, Current/A

-0.500, -2.003e-9
-0.493, -1.743e-9
-0.486, -1.627e-9
-0.479, -1.529e-9
-0.472, -1.440e-9
-0.465, -1.360e-9
-0.458, -1.285e-9
-0.451, -1.212e-9
-0.444, -1.144e-9
-0.437, -1.074e-9
-0.430, -1.010e-9
-0.423, -9.473e-10
-0.416, -8.852e-10
-0.409, -8.245e-10
-0.402, -7.673e-10
-0.395, -7.098e-10
-0.388, -6.531e-10
-0.381, -5.988e-10
-0.374, -5.463e-10
-0.367, -4.929e-10
-0.360, -4.422e-10
-0.353, -3.923e-10
-0.346, -3.429e-10
-0.339, -2.957e-10
-0.332, -2.483e-10
-0.325, -2.018e-10
-0.318, -1.549e-10
-0.311, -1.107e-10
-0.304, -6.451e-11
-0.297, -2.103e-11
-0.290, 2.067e-11
-0.283, 6.237e-11
-0.276, 1.042e-10
-0.269, 1.457e-10
-0.262, 1.858e-10
-0.255, 2.243e-10
-0.248, 2.655e-10
-0.241, 3.031e-10
-0.234, 3.415e-10
-0.227, 3.777e-10
-0.220, 4.152e-10
-0.213, 4.530e-10
-0.206, 4.886e-10
-0.199, 5.249e-10
-0.192, 5.607e-10
-0.185, 5.961e-10
-0.178, 6.325e-10
-0.171, 6.663e-10
-0.164, 7.017e-10
-0.157, 7.364e-10
-0.150, 7.688e-10
-0.143, 8.041e-10
-0.136, 8.377e-10
-0.129, 8.724e-10
-0.122, 9.078e-10
-0.115, 9.408e-10
-0.108, 9.760e-10
-0.101, 1.013e-9
-0.094, 1.045e-9
-0.087, 1.079e-9
-0.080, 1.114e-9
-0.073, 1.148e-9
-0.066, 1.183e-9
-0.059, 1.219e-9
-0.052, 1.253e-9
-0.045, 1.288e-9
-0.038, 1.321e-9
-0.031, 1.357e-9
-0.024, 1.391e-9
-0.017, 1.428e-9
-0.010, 1.463e-9
-0.003, 1.499e-9
0.004, 1.533e-9
0.011, 1.568e-9
0.018, 1.603e-9
0.025, 1.640e-9
0.032, 1.675e-9
0.039, 1.710e-9
0.046, 1.747e-9
0.053, 1.782e-9
0.060, 1.819e-9
0.067, 1.855e-9
0.074, 1.893e-9
0.081, 1.931e-9
0.088, 1.970e-9
0.095, 2.011e-9
0.102, 2.063e-9
0.109, 2.116e-9
0.116, 2.144e-9
0.123, 2.174e-9
0.130, 2.216e-9
0.137, 2.263e-9
0.144, 2.311e-9
0.151, 2.358e-9
0.158, 2.407e-9
0.165, 2.459e-9
0.172, 2.509e-9
0.179, 2.559e-9
0.186, 2.609e-9
0.193, 2.658e-9
0.200, 2.708e-9
0.207, 2.756e-9
0.214, 2.805e-9
0.221, 2.852e-9
0.228, 2.899e-9
0.235, 2.945e-9
0.242, 2.989e-9
0.249, 3.033e-9
0.256, 3.078e-9
0.263, 3.119e-9
0.270, 3.162e-9
0.277, 3.202e-9
0.284, 3.242e-9
0.291, 3.280e-9
0.298, 3.318e-9
0.305, 3.357e-9
0.312, 3.397e-9
0.319, 3.434e-9
0.326, 3.471e-9
0.333, 3.506e-9
0.340, 3.542e-9
0.347, 3.578e-9
0.354, 3.615e-9
0.361, 3.650e-9
0.368, 3.686e-9
0.375, 3.723e-9
0.382, 3.761e-9
0.389, 3.796e-9
0.396, 3.836e-9
0.403, 3.873e-9
0.410, 3.908e-9
0.417, 3.956e-9
0.424, 3.995e-9
0.431, 4.036e-9
0.438, 4.074e-9
0.445, 4.117e-9
0.452, 4.157e-9
0.459, 4.202e-9
0.466, 4.243e-9
0.473, 4.288e-9
0.480, 4.332e-9
0.487, 4.379e-9
0.494, 4.432e-9
0.499, 4.246e-9
0.492, 3.774e-9
0.485, 3.497e-9
0.478, 3.271e-9
0.471, 3.078e-9
0.464, 2.905e-9
0.457, 2.750e-9
0.450, 2.604e-9
0.443, 2.468e-9
0.436, 2.341e-9
0.429, 2.221e-9
0.422, 2.105e-9
0.415, 1.994e-9
0.408, 1.891e-9
0.401, 1.785e-9
0.394, 1.684e-9
0.387, 1.587e-9
0.380, 1.493e-9
0.373, 1.399e-9
0.366, 1.310e-9
0.359, 1.222e-9
0.352, 1.138e-9
0.345, 1.053e-9
0.338, 9.709e-10
0.331, 8.915e-10
0.324, 8.124e-10
0.317, 7.371e-10
0.310, 6.630e-10
0.303, 5.880e-10
0.296, 5.184e-10
0.289, 4.535e-10
0.282, 3.886e-10
0.275, 3.250e-10
0.268, 2.650e-10
0.261, 2.082e-10
0.254, 1.536e-10
0.247, 1.012e-10
0.240, 5.207e-11
0.233, 4.956e-12
0.226, -3.952e-11
0.219, -7.993e-11
0.212, -1.186e-10
0.205, -1.556e-10
0.198, -1.901e-10
0.191, -2.282e-10
0.184, -2.523e-10
0.177, -2.924e-10
0.170, -3.236e-10
0.163, -3.540e-10
0.156, -3.854e-10
0.149, -4.165e-10
0.142, -4.494e-10
0.135, -4.764e-10
0.128, -5.068e-10
0.121, -5.382e-10
0.114, -5.711e-10
0.107, -6.029e-10
0.100, -6.384e-10
0.093, -6.715e-10
0.086, -7.054e-10
0.079, -7.417e-10
0.072, -7.798e-10
0.065, -8.164e-10
0.058, -8.557e-10
0.051, -8.944e-10
0.044, -9.378e-10
0.037, -9.804e-10
0.030, -1.023e-9
0.023, -1.068e-9
0.016, -1.109e-9
0.009, -1.153e-9
0.002, -1.200e-9
-0.005, -1.242e-9
-0.012, -1.294e-9
-0.019, -1.339e-9
-0.026, -1.391e-9
-0.033, -1.440e-9
-0.040, -1.505e-9
-0.047, -1.553e-9
-0.054, -1.579e-9
-0.061, -1.611e-9
-0.068, -1.657e-9
-0.075, -1.714e-9
-0.082, -1.743e-9
-0.089, -1.789e-9
-0.096, -1.829e-9
-0.103, -1.884e-9
-0.110, -1.921e-9
-0.117, -1.961e-9
-0.124, -2.000e-9
-0.131, -2.051e-9
-0.138, -2.080e-9
-0.145, -2.120e-9
-0.152, -2.158e-9
-0.159, -2.198e-9
-0.166, -2.237e-9
-0.173, -2.274e-9
-0.180, -2.312e-9
-0.187, -2.349e-9
-0.194, -2.386e-9
-0.201, -2.423e-9
-0.208, -2.459e-9
-0.215, -2.497e-9
-0.222, -2.535e-9
-0.229, -2.570e-9
-0.236, -2.607e-9
-0.243, -2.643e-9
-0.250, -2.680e-9
-0.257, -2.715e-9
-0.264, -2.753e-9
-0.271, -2.785e-9
-0.278, -2.823e-9
-0.285, -2.856e-9
-0.292, -2.892e-9
-0.299, -2.927e-9
-0.306, -2.963e-9
-0.313, -2.999e-9
-0.320, -3.033e-9
-0.327, -3.071e-9
-0.334, -3.108e-9
-0.341, -3.145e-9
-0.348, -3.180e-9
-0.355, -3.217e-9
-0.362, -3.253e-9
-0.369, -3.290e-9
-0.376, -3.329e-9
-0.383, -3.367e-9
-0.390, -3.406e-9
-0.397, -3.443e-9
-0.404, -3.485e-9
-0.411, -3.523e-9
-0.418, -3.563e-9
-0.425, -3.605e-9
-0.432, -3.646e-9
-0.439, -3.686e-9
-0.446, -3.728e-9
-0.453, -3.771e-9
-0.460, -3.814e-9
-0.467, -3.858e-9
-0.474, -3.903e-9
-0.481, -3.950e-9
-0.488, -4.000e-9
-0.495, -4.051e-9
-0.499, -4.078e-9

File: CV SURFACE INCUBATED 8.txt
Mar. 7, 2025   14:41:43
Cyclic Voltammetry
File: cv surface incubated 8.bin
Data Source:  Experiment
Instrument Model:  CHI920C
Ref. Electrode:
Header:
Note:

Init E (V) = -0.5
High E (V) = 0.5
Low E (V) = -0.5
Init P/N = P
Scan Rate (V/s) = 0.05
Segment = 2
Sample Interval (V) = 0.001
Quiet Time (sec) = 10
Sensitivity (A/V) = 1e-8

Results:

Channel 1:
Segment 1:

Segment 2:

Potential/V, Current/A

-0.500, -2.112e-9
-0.493, -1.847e-9
-0.486, -1.731e-9
-0.479, -1.630e-9
-0.472, -1.545e-9
-0.465, -1.463e-9
-0.458, -1.385e-9
-0.451, -1.311e-9
-0.444, -1.242e-9
-0.437, -1.173e-9
-0.430, -1.107e-9
-0.423, -1.043e-9
-0.416, -9.818e-10
-0.409, -9.204e-10
-0.402, -8.606e-10
-0.395, -8.031e-10
-0.388, -7.460e-10
-0.381, -6.920e-10
-0.374, -6.387e-10
-0.367, -5.843e-10
-0.360, -5.312e-10
-0.353, -4.804e-10
-0.346, -4.307e-10
-0.339, -3.824e-10
-0.332, -3.333e-10
-0.325, -2.848e-10
-0.318, -2.395e-10
-0.311, -1.950e-10
-0.304, -1.480e-10
-0.297, -1.046e-10
-0.290, -6.092e-11
-0.283, -2.237e-11
-0.276, 2.247e-11
-0.269, 6.448e-11
-0.262, 1.038e-10
-0.255, 1.429e-10
-0.248, 1.851e-10
-0.241, 2.215e-10
-0.234, 2.618e-10
-0.227, 2.971e-10
-0.220, 3.364e-10
-0.213, 3.734e-10
-0.206, 4.104e-10
-0.199, 4.481e-10
-0.192, 4.825e-10
-0.185, 5.185e-10
-0.178, 5.566e-10
-0.171, 5.913e-10
-0.164, 6.277e-10
-0.157, 6.632e-10
-0.150, 6.982e-10
-0.143, 7.328e-10
-0.136, 7.674e-10
-0.129, 8.066e-10
-0.122, 8.405e-10
-0.115, 8.751e-10
-0.108, 9.099e-10
-0.101, 9.489e-10
-0.094, 9.853e-10
-0.087, 1.019e-9
-0.080, 1.053e-9
-0.073, 1.091e-9
-0.066, 1.127e-9
-0.059, 1.162e-9
-0.052, 1.198e-9
-0.045, 1.233e-9
-0.038, 1.271e-9
-0.031, 1.307e-9
-0.024, 1.341e-9
-0.017, 1.379e-9
-0.010, 1.415e-9
-0.003, 1.449e-9
0.004, 1.484e-9
0.011, 1.520e-9
0.018, 1.555e-9
0.025, 1.591e-9
0.032, 1.626e-9
0.039, 1.661e-9
0.046, 1.698e-9
0.053, 1.733e-9
0.060, 1.768e-9
0.067, 1.805e-9
0.074, 1.841e-9
0.081, 1.880e-9
0.088, 1.917e-9
0.095, 1.957e-9
0.102, 2.006e-9
0.109, 2.062e-9
0.116, 2.088e-9
0.123, 2.118e-9
0.130, 2.163e-9
0.137, 2.209e-9
0.144, 2.255e-9
0.151, 2.304e-9
0.158, 2.354e-9
0.165, 2.403e-9
0.172, 2.456e-9
0.179, 2.506e-9
0.186, 2.557e-9
0.193, 2.611e-9
0.200, 2.662e-9
0.207, 2.707e-9
0.214, 2.759e-9
0.221, 2.807e-9
0.228, 2.854e-9
0.235, 2.901e-9
0.242, 2.947e-9
0.249, 2.992e-9
0.256, 3.035e-9
0.263, 3.080e-9
0.270, 3.120e-9
0.277, 3.159e-9
0.284, 3.201e-9
0.291, 3.240e-9
0.298, 3.277e-9
0.305, 3.315e-9
0.312, 3.354e-9
0.319, 3.390e-9
0.326, 3.424e-9
0.333, 3.461e-9
0.340, 3.497e-9
0.347, 3.531e-9
0.354, 3.565e-9
0.361, 3.601e-9
0.368, 3.636e-9
0.375, 3.669e-9
0.382, 3.705e-9
0.389, 3.744e-9
0.396, 3.785e-9
0.403, 3.824e-9
0.410, 3.857e-9
0.417, 3.903e-9
0.424, 3.942e-9
0.431, 3.981e-9
0.438, 4.021e-9
0.445, 4.062e-9
0.452, 4.103e-9
0.459, 4.145e-9
0.466, 4.187e-9
0.473, 4.231e-9
0.480, 4.277e-9
0.487, 4.324e-9
0.494, 4.375e-9
0.499, 4.183e-9
0.492, 3.714e-9
0.485, 3.441e-9
0.478, 3.218e-9
0.471, 3.027e-9
0.464, 2.859e-9
0.457, 2.704e-9
0.450, 2.560e-9
0.443, 2.428e-9
0.436, 2.302e-9
0.429, 2.182e-9
0.422, 2.069e-9
0.415, 1.958e-9
0.408, 1.857e-9
0.401, 1.754e-9
0.394, 1.654e-9
0.387, 1.555e-9
0.380, 1.461e-9
0.373, 1.372e-9
0.366, 1.282e-9
0.359, 1.194e-9
0.352, 1.109e-9
0.345, 1.027e-9
0.338, 9.450e-10
0.331, 8.666e-10
0.324, 7.888e-10
0.317, 7.107e-10
0.310, 6.359e-10
0.303, 5.669e-10
0.296, 4.967e-10
0.289, 4.304e-10
0.282, 3.674e-10
0.275, 3.059e-10
0.268, 2.480e-10
0.261, 1.898e-10
0.254, 1.357e-10
0.247, 8.458e-11
0.240, 3.457e-11
0.233, -1.088e-11
0.226, -5.537e-11
0.219, -9.571e-11
0.212, -1.332e-10
0.205, -1.648e-10
0.198, -2.004e-10
0.191, -2.369e-10
0.184, -2.680e-10
0.177, -3.003e-10
0.170, -3.302e-10
0.163, -3.585e-10
0.156, -3.888e-10
0.149, -4.209e-10
0.142, -4.497e-10
0.135, -4.789e-10
0.128, -5.087e-10
0.121, -5.419e-10
0.114, -5.724e-10
0.107, -6.055e-10
0.100, -6.401e-10
0.093, -6.738e-10
0.086, -7.079e-10
0.079, -7.447e-10
0.072, -7.816e-10
0.065, -8.196e-10
0.058, -8.596e-10
0.051, -8.990e-10
0.044, -9.398e-10
0.037, -9.823e-10
0.030, -1.024e-9
0.023, -1.067e-9
0.016, -1.112e-9
0.009, -1.156e-9
0.002, -1.202e-9
-0.005, -1.247e-9
-0.012, -1.295e-9
-0.019, -1.345e-9
-0.026, -1.395e-9
-0.033, -1.448e-9
-0.040, -1.510e-9
-0.047, -1.552e-9
-0.054, -1.582e-9
-0.061, -1.641e-9
-0.068, -1.679e-9
-0.075, -1.714e-9
-0.082, -1.758e-9
-0.089, -1.806e-9
-0.096, -1.848e-9
-0.103, -1.893e-9
-0.110, -1.935e-9
-0.117, -1.977e-9
-0.124, -2.044e-9
-0.131, -2.058e-9
-0.138, -2.100e-9
-0.145, -2.142e-9
-0.152, -2.179e-9
-0.159, -2.219e-9
-0.166, -2.259e-9
-0.173, -2.297e-9
-0.180, -2.337e-9
-0.187, -2.373e-9
-0.194, -2.410e-9
-0.201, -2.451e-9
-0.208, -2.484e-9
-0.215, -2.522e-9
-0.222, -2.559e-9
-0.229, -2.597e-9
-0.236, -2.633e-9
-0.243, -2.668e-9
-0.250, -2.704e-9
-0.257, -2.742e-9
-0.264, -2.774e-9
-0.271, -2.811e-9
-0.278, -2.847e-9
-0.285, -2.883e-9
-0.292, -2.921e-9
-0.299, -2.955e-9
-0.306, -2.989e-9
-0.313, -3.028e-9
-0.320, -3.062e-9
-0.327, -3.097e-9
-0.334, -3.135e-9
-0.341, -3.172e-9
-0.348, -3.207e-9
-0.355, -3.246e-9
-0.362, -3.281e-9
-0.369, -3.319e-9
-0.376, -3.356e-9
-0.383, -3.393e-9
-0.390, -3.432e-9
-0.397, -3.469e-9
-0.404, -3.508e-9
-0.411, -3.548e-9
-0.418, -3.586e-9
-0.425, -3.629e-9
-0.432, -3.668e-9
-0.439, -3.709e-9
-0.446, -3.750e-9
-0.453, -3.794e-9
-0.460, -3.837e-9
-0.467, -3.882e-9
-0.474, -3.925e-9
-0.481, -3.973e-9
-0.488, -4.015e-9
-0.495, -4.061e-9
-0.499, -4.089e-9