Folder: Bioelectricity-generation-by-Symbiodinium-microadriaticum/Fig 4/Fig 3c CV surface dark

File: CV_surface_dark_1.txt
Nov. 20, 2024   15:47:57
Cyclic Voltammetry
File: +12 2319-1 fto cv_cells_dark_surface_1.bin
Data Source:  Experiment
Instrument Model:  CHI920C
Ref. Electrode:
Header:
Note:

Init E (V) = -0.5
High E (V) = 0.5
Low E (V) = -0.5
Init P/N = P
Scan Rate (V/s) = 0.05
Segment = 2
Sample Interval (V) = 0.001
Quiet Time (sec) = 10
Sensitivity (A/V) = 1e-7

Results:

Channel 1:
Segment 1:

Segment 2:

Potential/V, Current/A

-0.500, -3.358e-9
-0.493, -3.081e-9
-0.486, -2.936e-9
-0.479, -2.821e-9
-0.472, -2.721e-9
-0.465, -2.628e-9
-0.458, -2.546e-9
-0.451, -2.465e-9
-0.444, -2.389e-9
-0.437, -2.314e-9
-0.430, -2.248e-9
-0.423, -2.176e-9
-0.416, -2.115e-9
-0.409, -2.049e-9
-0.402, -1.985e-9
-0.395, -1.924e-9
-0.388, -1.865e-9
-0.381, -1.804e-9
-0.374, -1.748e-9
-0.367, -1.690e-9
-0.360, -1.634e-9
-0.353, -1.580e-9
-0.346, -1.527e-9
-0.339, -1.467e-9
-0.332, -1.413e-9
-0.325, -1.358e-9
-0.318, -1.309e-9
-0.311, -1.253e-9
-0.304, -1.193e-9
-0.297, -1.143e-9
-0.290, -1.091e-9
-0.283, -1.041e-9
-0.276, -9.810e-10
-0.269, -9.303e-10
-0.262, -8.777e-10
-0.255, -8.288e-10
-0.248, -7.786e-10
-0.241, -7.254e-10
-0.234, -6.725e-10
-0.227, -6.249e-10
-0.220, -5.751e-10
-0.213, -5.202e-10
-0.206, -4.648e-10
-0.199, -4.149e-10
-0.192, -3.650e-10
-0.185, -3.197e-10
-0.178, -2.653e-10
-0.171, -2.107e-10
-0.164, -1.625e-10
-0.157, -1.125e-10
-0.150, -6.664e-11
-0.143, -7.565e-12
-0.136, 4.196e-11
-0.129, 9.323e-11
-0.122, 1.396e-10
-0.115, 1.823e-10
-0.108, 2.362e-10
-0.101, 2.913e-10
-0.094, 3.367e-10
-0.087, 3.846e-10
-0.080, 4.284e-10
-0.073, 4.866e-10
-0.066, 5.387e-10
-0.059, 5.861e-10
-0.052, 6.350e-10
-0.045, 6.808e-10
-0.038, 7.304e-10
-0.031, 7.790e-10
-0.024, 8.245e-10
-0.017, 8.761e-10
-0.010, 9.213e-10
-0.003, 9.749e-10
0.004, 1.019e-9
0.011, 1.068e-9
0.018, 1.112e-9
0.025, 1.154e-9
0.032, 1.207e-9
0.039, 1.254e-9
0.046, 1.302e-9
0.053, 1.349e-9
0.060, 1.399e-9
0.067, 1.448e-9
0.074, 1.494e-9
0.081, 1.542e-9
0.088, 1.593e-9
0.095, 1.639e-9
0.102, 1.699e-9
0.109, 1.787e-9
0.116, 1.911e-9
0.123, 1.976e-9
0.130, 1.985e-9
0.137, 1.997e-9
0.144, 2.008e-9
0.151, 2.006e-9
0.158, 2.006e-9
0.165, 2.014e-9
0.172, 2.033e-9
0.179, 2.052e-9
0.186, 2.072e-9
0.193, 2.108e-9
0.200, 2.115e-9
0.207, 2.136e-9
0.214, 2.162e-9
0.221, 2.186e-9
0.228, 2.213e-9
0.235, 2.237e-9
0.242, 2.258e-9
0.249, 2.281e-9
0.256, 2.308e-9
0.263, 2.333e-9
0.270, 2.357e-9
0.277, 2.382e-9
0.284, 2.403e-9
0.291, 2.430e-9
0.298, 2.452e-9
0.305, 2.477e-9
0.312, 2.504e-9
0.319, 2.527e-9
0.326, 2.554e-9
0.333, 2.578e-9
0.340, 2.603e-9
0.347, 2.627e-9
0.354, 2.661e-9
0.361, 2.690e-9
0.368, 2.718e-9
0.375, 2.746e-9
0.382, 2.776e-9
0.389, 2.807e-9
0.396, 2.835e-9
0.403, 2.866e-9
0.410, 2.891e-9
0.417, 2.927e-9
0.424, 2.960e-9
0.431, 2.992e-9
0.438, 3.029e-9
0.445, 3.063e-9
0.452, 3.094e-9
0.459, 3.133e-9
0.466, 3.174e-9
0.473, 3.217e-9
0.480, 3.257e-9
0.487, 3.295e-9
0.494, 3.338e-9
0.499, 3.218e-9
0.492, 2.758e-9
0.485, 2.470e-9
0.478, 2.240e-9
0.471, 2.051e-9
0.464, 1.884e-9
0.457, 1.736e-9
0.450, 1.600e-9
0.443, 1.483e-9
0.436, 1.365e-9
0.429, 1.259e-9
0.422, 1.157e-9
0.415, 1.070e-9
0.408, 9.887e-10
0.401, 8.996e-10
0.394, 8.191e-10
0.387, 7.451e-10
0.380, 6.666e-10
0.373, 5.981e-10
0.366, 5.276e-10
0.359, 4.540e-10
0.352, 3.897e-10
0.345, 3.299e-10
0.338, 2.706e-10
0.331, 2.063e-10
0.324, 1.507e-10
0.317, 9.703e-11
0.310, 4.254e-11
0.303, -1.195e-11
0.296, -6.898e-11
0.289, -1.176e-10
0.282, -1.651e-10
0.275, -2.129e-10
0.268, -2.645e-10
0.261, -3.131e-10
0.254, -3.558e-10
0.247, -3.985e-10
0.240, -4.422e-10
0.233, -4.877e-10
0.226, -5.353e-10
0.219, -5.764e-10
0.212, -6.166e-10
0.205, -6.545e-10
0.198, -6.955e-10
0.191, -7.358e-10
0.184, -7.792e-10
0.177, -8.178e-10
0.170, -8.561e-10
0.163, -8.946e-10
0.156, -9.366e-10
0.149, -9.763e-10
0.142, -1.022e-9
0.135, -1.065e-9
0.128, -1.107e-9
0.121, -1.150e-9
0.114, -1.195e-9
0.107, -1.245e-9
0.100, -1.297e-9
0.093, -1.343e-9
0.086, -1.390e-9
0.079, -1.443e-9
0.072, -1.502e-9
0.065, -1.560e-9
0.058, -1.614e-9
0.051, -1.667e-9
0.044, -1.727e-9
0.037, -1.787e-9
0.030, -1.845e-9
0.023, -1.907e-9
0.016, -1.966e-9
0.009, -2.027e-9
0.002, -2.086e-9
-0.005, -2.143e-9
-0.012, -2.200e-9
-0.019, -2.261e-9
-0.026, -2.315e-9
-0.033, -2.372e-9
-0.040, -2.424e-9
-0.047, -2.486e-9
-0.054, -2.535e-9
-0.061, -2.584e-9
-0.068, -2.636e-9
-0.075, -2.674e-9
-0.082, -2.718e-9
-0.089, -2.771e-9
-0.096, -2.798e-9
-0.103, -2.844e-9
-0.110, -2.883e-9
-0.117, -2.919e-9
-0.124, -2.955e-9
-0.131, -2.988e-9
-0.138, -3.021e-9
-0.145, -3.053e-9
-0.152, -3.084e-9
-0.159, -3.112e-9
-0.166, -3.140e-9
-0.173, -3.170e-9
-0.180, -3.198e-9
-0.187, -3.228e-9
-0.194, -3.254e-9
-0.201, -3.278e-9
-0.208, -3.300e-9
-0.215, -3.327e-9
-0.222, -3.355e-9
-0.229, -3.378e-9
-0.236, -3.404e-9
-0.243, -3.427e-9
-0.250, -3.452e-9
-0.257, -3.473e-9
-0.264, -3.493e-9
-0.271, -3.513e-9
-0.278, -3.533e-9
-0.285, -3.551e-9
-0.292, -3.575e-9
-0.299, -3.595e-9
-0.306, -3.616e-9
-0.313, -3.639e-9
-0.320, -3.658e-9
-0.327, -3.680e-9
-0.334, -3.699e-9
-0.341, -3.715e-9
-0.348, -3.730e-9
-0.355, -3.746e-9
-0.362, -3.759e-9
-0.369, -3.775e-9
-0.376, -3.789e-9
-0.383, -3.804e-9
-0.390, -3.821e-9
-0.397, -3.835e-9
-0.404, -3.855e-9
-0.411, -3.870e-9
-0.418, -3.885e-9
-0.425, -3.900e-9
-0.432, -3.919e-9
-0.439, -3.934e-9
-0.446, -3.954e-9
-0.453, -3.972e-9
-0.460, -3.991e-9
-0.467, -4.010e-9
-0.474, -4.026e-9
-0.481, -4.048e-9
-0.488, -4.069e-9
-0.495, -4.095e-9
-0.499, -4.108e-9

File: CV_surface_dark_2.txt
Nov. 20, 2024   15:48:58
Cyclic Voltammetry
File: +12 2319-1 fto cv_cells_dark_surface_2.bin
Data Source:  Experiment
Instrument Model:  CHI920C
Ref. Electrode:
Header:
Note:

Init E (V) = -0.5
High E (V) = 0.5
Low E (V) = -0.5
Init P/N = P
Scan Rate (V/s) = 0.05
Segment = 2
Sample Interval (V) = 0.001
Quiet Time (sec) = 10
Sensitivity (A/V) = 1e-7

Results:

Channel 1:
Segment 1:
Ep = 0.147V
ip = 6.350e-10A
Ah = 4.734e-10C

Segment 2:

Potential/V, Current/A

-0.500, -2.113e-9
-0.493, -1.853e-9
-0.486, -1.735e-9
-0.479, -1.643e-9
-0.472, -1.568e-9
-0.465, -1.500e-9
-0.458, -1.431e-9
-0.451, -1.371e-9
-0.444, -1.317e-9
-0.437, -1.264e-9
-0.430, -1.209e-9
-0.423, -1.156e-9
-0.416, -1.107e-9
-0.409, -1.061e-9
-0.402, -1.011e-9
-0.395, -9.599e-10
-0.388, -9.137e-10
-0.381, -8.675e-10
-0.374, -8.266e-10
-0.367, -7.879e-10
-0.360, -7.391e-10
-0.353, -6.953e-10
-0.346, -6.528e-10
-0.339, -6.098e-10
-0.332, -5.687e-10
-0.325, -5.212e-10
-0.318, -4.750e-10
-0.311, -4.311e-10
-0.304, -3.861e-10
-0.297, -3.484e-10
-0.290, -3.081e-10
-0.283, -2.610e-10
-0.276, -2.150e-10
-0.269, -1.738e-10
-0.262, -1.313e-10
-0.255, -8.867e-11
-0.248, -4.587e-11
-0.241, 2.671e-12
-0.234, 4.547e-11
-0.227, 8.719e-11
-0.220, 1.283e-10
-0.213, 1.688e-10
-0.206, 2.129e-10
-0.199, 2.586e-10
-0.192, 3.029e-10
-0.185, 3.445e-10
-0.178, 3.849e-10
-0.171, 4.244e-10
-0.164, 4.746e-10
-0.157, 5.216e-10
-0.150, 5.629e-10
-0.143, 6.075e-10
-0.136, 6.476e-10
-0.129, 6.879e-10
-0.122, 7.308e-10
-0.115, 7.719e-10
-0.108, 8.139e-10
-0.101, 8.598e-10
-0.094, 8.967e-10
-0.087, 9.402e-10
-0.080, 9.812e-10
-0.073, 1.020e-9
-0.066, 1.061e-9
-0.059, 1.099e-9
-0.052, 1.137e-9
-0.045, 1.175e-9
-0.038, 1.222e-9
-0.031, 1.264e-9
-0.024, 1.302e-9
-0.017, 1.344e-9
-0.010, 1.386e-9
-0.003, 1.432e-9
0.004, 1.475e-9
0.011, 1.517e-9
0.018, 1.563e-9
0.025, 1.607e-9
0.032, 1.650e-9
0.039, 1.697e-9
0.046, 1.745e-9
0.053, 1.789e-9
0.060, 1.836e-9
0.067, 1.880e-9
0.074, 1.930e-9
0.081, 1.979e-9
0.088, 2.026e-9
0.095, 2.075e-9
0.102, 2.124e-9
0.109, 2.187e-9
0.116, 2.279e-9
0.123, 2.435e-9
0.130, 2.548e-9
0.137, 2.692e-9
0.144, 2.848e-9
0.151, 2.864e-9
0.158, 2.772e-9
0.165, 2.670e-9
0.172, 2.599e-9
0.179, 2.564e-9
0.186, 2.554e-9
0.193, 2.555e-9
0.200, 2.569e-9
0.207, 2.579e-9
0.214, 2.596e-9
0.221, 2.615e-9
0.228, 2.638e-9
0.235, 2.661e-9
0.242, 2.686e-9
0.249, 2.708e-9
0.256, 2.730e-9
0.263, 2.755e-9
0.270, 2.780e-9
0.277, 2.801e-9
0.284, 2.825e-9
0.291, 2.848e-9
0.298, 2.872e-9
0.305, 2.900e-9
0.312, 2.927e-9
0.319, 2.953e-9
0.326, 2.980e-9
0.333, 3.007e-9
0.340, 3.039e-9
0.347, 3.065e-9
0.354, 3.092e-9
0.361, 3.123e-9
0.368, 3.158e-9
0.375, 3.194e-9
0.382, 3.226e-9
0.389, 3.256e-9
0.396, 3.294e-9
0.403, 3.327e-9
0.410, 3.357e-9
0.417, 3.403e-9
0.424, 3.436e-9
0.431, 3.478e-9
0.438, 3.515e-9
0.445, 3.553e-9
0.452, 3.589e-9
0.459, 3.636e-9
0.466, 3.684e-9
0.473, 3.726e-9
0.480, 3.769e-9
0.487, 3.811e-9
0.494, 3.861e-9
0.499, 3.738e-9
0.492, 3.255e-9
0.485, 2.962e-9
0.478, 2.734e-9
0.471, 2.539e-9
0.464, 2.370e-9
0.457, 2.221e-9
0.450, 2.085e-9
0.443, 1.964e-9
0.436, 1.849e-9
0.429, 1.741e-9
0.422, 1.638e-9
0.415, 1.545e-9
0.408, 1.461e-9
0.401, 1.369e-9
0.394, 1.284e-9
0.387, 1.205e-9
0.380, 1.128e-9
0.373, 1.058e-9
0.366, 9.888e-10
0.359, 9.177e-10
0.352, 8.491e-10
0.345, 7.811e-10
0.338, 7.182e-10
0.331, 6.551e-10
0.324, 5.954e-10
0.317, 5.338e-10
0.310, 4.681e-10
0.303, 4.053e-10
0.296, 3.521e-10
0.289, 2.964e-10
0.282, 2.431e-10
0.275, 1.847e-10
0.268, 1.379e-10
0.261, 8.621e-11
0.254, 3.416e-11
0.247, -1.770e-11
0.240, -7.317e-11
0.233, -1.194e-10
0.226, -1.677e-10
0.219, -2.168e-10
0.212, -2.698e-10
0.205, -3.183e-10
0.198, -3.627e-10
0.191, -4.105e-10
0.184, -4.602e-10
0.177, -5.101e-10
0.170, -5.661e-10
0.163, -6.121e-10
0.156, -6.621e-10
0.149, -7.138e-10
0.142, -7.676e-10
0.135, -8.199e-10
0.128, -8.687e-10
0.121, -9.252e-10
0.114, -9.831e-10
0.107, -1.047e-9
0.100, -1.106e-9
0.093, -1.166e-9
0.086, -1.228e-9
0.079, -1.297e-9
0.072, -1.356e-9
0.065, -1.422e-9
0.058, -1.492e-9
0.051, -1.558e-9
0.044, -1.623e-9
0.037, -1.684e-9
0.030, -1.753e-9
0.023, -1.813e-9
0.016, -1.877e-9
0.009, -1.938e-9
0.002, -1.998e-9
-0.005, -2.053e-9
-0.012, -2.112e-9
-0.019, -2.163e-9
-0.026, -2.219e-9
-0.033, -2.274e-9
-0.040, -2.327e-9
-0.047, -2.394e-9
-0.054, -2.467e-9
-0.061, -2.541e-9
-0.068, -2.560e-9
-0.075, -2.578e-9
-0.082, -2.579e-9
-0.089, -2.593e-9
-0.096, -2.630e-9
-0.103, -2.661e-9
-0.110, -2.690e-9
-0.117, -2.713e-9
-0.124, -2.746e-9
-0.131, -2.767e-9
-0.138, -2.792e-9
-0.145, -2.820e-9
-0.152, -2.850e-9
-0.159, -2.870e-9
-0.166, -2.894e-9
-0.173, -2.919e-9
-0.180, -2.942e-9
-0.187, -2.967e-9
-0.194, -2.992e-9
-0.201, -3.014e-9
-0.208, -3.032e-9
-0.215, -3.055e-9
-0.222, -3.078e-9
-0.229, -3.098e-9
-0.236, -3.121e-9
-0.243, -3.145e-9
-0.250, -3.162e-9
-0.257, -3.183e-9
-0.264, -3.202e-9
-0.271, -3.227e-9
-0.278, -3.246e-9
-0.285, -3.260e-9
-0.292, -3.278e-9
-0.299, -3.298e-9
-0.306, -3.316e-9
-0.313, -3.339e-9
-0.320, -3.354e-9
-0.327, -3.369e-9
-0.334, -3.384e-9
-0.341, -3.400e-9
-0.348, -3.414e-9
-0.355, -3.425e-9
-0.362, -3.442e-9
-0.369, -3.453e-9
-0.376, -3.465e-9
-0.383, -3.479e-9
-0.390, -3.490e-9
-0.397, -3.499e-9
-0.404, -3.511e-9
-0.411, -3.525e-9
-0.418, -3.537e-9
-0.425, -3.550e-9
-0.432, -3.566e-9
-0.439, -3.579e-9
-0.446, -3.596e-9
-0.453, -3.611e-9
-0.460, -3.630e-9
-0.467, -3.647e-9
-0.474, -3.664e-9
-0.481, -3.684e-9
-0.488, -3.704e-9
-0.495, -3.725e-9
-0.499, -3.733e-9

File: CV_surface_dark_3.txt
Nov. 20, 2024   15:50:03
Cyclic Voltammetry
File: +12 2319-1 fto cv_cells_dark_surface_3.bin
Data Source:  Experiment
Instrument Model:  CHI920C
Ref. Electrode:
Header:
Note:

Init E (V) = -0.5
High E (V) = 0.5
Low E (V) = -0.5
Init P/N = P
Scan Rate (V/s) = 0.05
Segment = 2
Sample Interval (V) = 0.001
Quiet Time (sec) = 10
Sensitivity (A/V) = 1e-7

Results:

Channel 1:
Segment 1:
Ep = 0.139V
ip = 1.002e-9A
Ah = 4.891e-10C

Segment 2:

Potential/V, Current/A

-0.500, -1.771e-9
-0.493, -1.517e-9
-0.486, -1.395e-9
-0.479, -1.309e-9
-0.472, -1.233e-9
-0.465, -1.163e-9
-0.458, -1.104e-9
-0.451, -1.049e-9
-0.444, -9.915e-10
-0.437, -9.357e-10
-0.430, -8.876e-10
-0.423, -8.388e-10
-0.416, -7.969e-10
-0.409, -7.473e-10
-0.402, -6.995e-10
-0.395, -6.578e-10
-0.388, -6.127e-10
-0.381, -5.711e-10
-0.374, -5.297e-10
-0.367, -4.794e-10
-0.360, -4.378e-10
-0.353, -3.948e-10
-0.346, -3.549e-10
-0.339, -3.165e-10
-0.332, -2.752e-10
-0.325, -2.281e-10
-0.318, -1.850e-10
-0.311, -1.460e-10
-0.304, -1.040e-10
-0.297, -6.508e-11
-0.290, -2.014e-11
-0.283, 2.558e-11
-0.276, 6.642e-11
-0.269, 1.076e-10
-0.262, 1.464e-10
-0.255, 1.837e-10
-0.248, 2.306e-10
-0.241, 2.729e-10
-0.234, 3.140e-10
-0.227, 3.583e-10
-0.220, 3.959e-10
-0.213, 4.377e-10
-0.206, 4.877e-10
-0.199, 5.302e-10
-0.192, 5.749e-10
-0.185, 6.178e-10
-0.178, 6.573e-10
-0.171, 7.007e-10
-0.164, 7.436e-10
-0.157, 7.842e-10
-0.150, 8.239e-10
-0.143, 8.667e-10
-0.136, 9.086e-10
-0.129, 9.516e-10
-0.122, 9.930e-10
-0.115, 1.031e-9
-0.108, 1.070e-9
-0.101, 1.113e-9
-0.094, 1.147e-9
-0.087, 1.188e-9
-0.080, 1.230e-9
-0.073, 1.268e-9
-0.066, 1.309e-9
-0.059, 1.347e-9
-0.052, 1.387e-9
-0.045, 1.428e-9
-0.038, 1.469e-9
-0.031, 1.509e-9
-0.024, 1.548e-9
-0.017, 1.587e-9
-0.010, 1.626e-9
-0.003, 1.669e-9
0.004, 1.712e-9
0.011, 1.752e-9
0.018, 1.796e-9
0.025, 1.841e-9
0.032, 1.882e-9
0.039, 1.930e-9
0.046, 1.976e-9
0.053, 2.018e-9
0.060, 2.064e-9
0.067, 2.106e-9
0.074, 2.151e-9
0.081, 2.201e-9
0.088, 2.248e-9
0.095, 2.299e-9
0.102, 2.358e-9
0.109, 2.434e-9
0.116, 2.593e-9
0.123, 2.957e-9
0.130, 3.294e-9
0.137, 3.438e-9
0.144, 3.345e-9
0.151, 3.060e-9
0.158, 2.844e-9
0.165, 2.759e-9
0.172, 2.721e-9
0.179, 2.722e-9
0.186, 2.735e-9
0.193, 2.752e-9
0.200, 2.773e-9
0.207, 2.790e-9
0.214, 2.813e-9
0.221, 2.830e-9
0.228, 2.850e-9
0.235, 2.871e-9
0.242, 2.892e-9
0.249, 2.914e-9
0.256, 2.936e-9
0.263, 2.955e-9
0.270, 2.979e-9
0.277, 3.003e-9
0.284, 3.026e-9
0.291, 3.047e-9
0.298, 3.070e-9
0.305, 3.092e-9
0.312, 3.119e-9
0.319, 3.151e-9
0.326, 3.181e-9
0.333, 3.208e-9
0.340, 3.237e-9
0.347, 3.267e-9
0.354, 3.298e-9
0.361, 3.327e-9
0.368, 3.360e-9
0.375, 3.396e-9
0.382, 3.431e-9
0.389, 3.466e-9
0.396, 3.499e-9
0.403, 3.537e-9
0.410, 3.565e-9
0.417, 3.604e-9
0.424, 3.647e-9
0.431, 3.690e-9
0.438, 3.735e-9
0.445, 3.775e-9
0.452, 3.815e-9
0.459, 3.859e-9
0.466, 3.903e-9
0.473, 3.949e-9
0.480, 3.992e-9
0.487, 4.036e-9
0.494, 4.080e-9
0.499, 3.953e-9
0.492, 3.468e-9
0.485, 3.172e-9
0.478, 2.940e-9
0.471, 2.746e-9
0.464, 2.570e-9
0.457, 2.419e-9
0.450, 2.279e-9
0.443, 2.152e-9
0.436, 2.042e-9
0.429, 1.932e-9
0.422, 1.828e-9
0.415, 1.731e-9
0.408, 1.638e-9
0.401, 1.550e-9
0.394, 1.468e-9
0.387, 1.382e-9
0.380, 1.303e-9
0.373, 1.229e-9
0.366, 1.151e-9
0.359, 1.085e-9
0.352, 1.017e-9
0.345, 9.511e-10
0.338, 8.811e-10
0.331, 8.157e-10
0.324, 7.533e-10
0.317, 6.887e-10
0.310, 6.313e-10
0.303, 5.696e-10
0.296, 5.112e-10
0.289, 4.439e-10
0.282, 3.894e-10
0.275, 3.349e-10
0.268, 2.820e-10
0.261, 2.249e-10
0.254, 1.699e-10
0.247, 1.231e-10
0.240, 7.130e-11
0.233, 2.022e-11
0.226, -3.622e-11
0.219, -8.857e-11
0.212, -1.367e-10
0.205, -1.863e-10
0.198, -2.380e-10
0.191, -2.958e-10
0.184, -3.443e-10
0.177, -3.942e-10
0.170, -4.486e-10
0.163, -5.027e-10
0.156, -5.623e-10
0.149, -6.153e-10
0.142, -6.724e-10
0.135, -7.271e-10
0.128, -7.920e-10
0.121, -8.476e-10
0.114, -9.082e-10
0.107, -9.694e-10
0.100, -1.045e-9
0.093, -1.105e-9
0.086, -1.171e-9
0.079, -1.243e-9
0.072, -1.313e-9
0.065, -1.379e-9
0.058, -1.447e-9
0.051, -1.523e-9
0.044, -1.588e-9
0.037, -1.653e-9
0.030, -1.717e-9
0.023, -1.783e-9
0.016, -1.843e-9
0.009, -1.906e-9
0.002, -1.964e-9
-0.005, -2.021e-9
-0.012, -2.075e-9
-0.019, -2.128e-9
-0.026, -2.178e-9
-0.033, -2.244e-9
-0.040, -2.318e-9
-0.047, -2.413e-9
-0.054, -2.511e-9
-0.061, -2.586e-9
-0.068, -2.577e-9
-0.075, -2.540e-9
-0.082, -2.532e-9
-0.089, -2.514e-9
-0.096, -2.551e-9
-0.103, -2.564e-9
-0.110, -2.586e-9
-0.117, -2.621e-9
-0.124, -2.632e-9
-0.131, -2.646e-9
-0.138, -2.671e-9
-0.145, -2.694e-9
-0.152, -2.719e-9
-0.159, -2.741e-9
-0.166, -2.764e-9
-0.173, -2.784e-9
-0.180, -2.802e-9
-0.187, -2.826e-9
-0.194, -2.848e-9
-0.201, -2.871e-9
-0.208, -2.891e-9
-0.215, -2.911e-9
-0.222, -2.934e-9
-0.229, -2.955e-9
-0.236, -2.977e-9
-0.243, -2.999e-9
-0.250, -3.016e-9
-0.257, -3.036e-9
-0.264, -3.057e-9
-0.271, -3.075e-9
-0.278, -3.097e-9
-0.285, -3.113e-9
-0.292, -3.129e-9
-0.299, -3.148e-9
-0.306, -3.164e-9
-0.313, -3.182e-9
-0.320, -3.196e-9
-0.327, -3.213e-9
-0.334, -3.225e-9
-0.341, -3.240e-9
-0.348, -3.253e-9
-0.355, -3.264e-9
-0.362, -3.275e-9
-0.369, -3.288e-9
-0.376, -3.300e-9
-0.383, -3.315e-9
-0.390, -3.327e-9
-0.397, -3.339e-9
-0.404, -3.353e-9
-0.411, -3.365e-9
-0.418, -3.377e-9
-0.425, -3.389e-9
-0.432, -3.402e-9
-0.439, -3.417e-9
-0.446, -3.432e-9
-0.453, -3.447e-9
-0.460, -3.462e-9
-0.467, -3.478e-9
-0.474, -3.490e-9
-0.481, -3.507e-9
-0.488, -3.521e-9
-0.495, -3.539e-9
-0.499, -3.549e-9

File: CV_surface_dark_4.txt
Nov. 20, 2024   15:51:10
Cyclic Voltammetry
File: +12 2319-1 fto cv_cells_dark_surface_4.bin
Data Source:  Experiment
Instrument Model:  CHI920C
Ref. Electrode:
Header:
Note:

Init E (V) = -0.5
High E (V) = 0.5
Low E (V) = -0.5
Init P/N = P
Scan Rate (V/s) = 0.05
Segment = 2
Sample Interval (V) = 0.001
Quiet Time (sec) = 10
Sensitivity (A/V) = 1e-7

Results:

Channel 1:
Segment 1:
Ep = 0.129V
ip = 1.417e-9A
Ah = 4.636e-10C

Segment 2:
Ep = -0.061V
ip = -4.397e-10A
Ah = -7.637e-10C

Potential/V, Current/A

-0.500, -1.580e-9
-0.493, -1.317e-9
-0.486, -1.197e-9
-0.479, -1.109e-9
-0.472, -1.039e-9
-0.465, -9.675e-10
-0.458, -9.077e-10
-0.451, -8.524e-10
-0.444, -8.055e-10
-0.437, -7.518e-10
-0.430, -7.032e-10
-0.423, -6.551e-10
-0.416, -6.084e-10
-0.409, -5.655e-10
-0.402, -5.176e-10
-0.395, -4.690e-10
-0.388, -4.262e-10
-0.381, -3.862e-10
-0.374, -3.453e-10
-0.367, -3.060e-10
-0.360, -2.603e-10
-0.353, -2.168e-10
-0.346, -1.768e-10
-0.339, -1.353e-10
-0.332, -9.842e-11
-0.325, -5.942e-11
-0.318, -1.293e-11
-0.311, 3.114e-11
-0.304, 7.266e-11
-0.297, 1.110e-10
-0.290, 1.495e-10
-0.283, 1.865e-10
-0.276, 2.313e-10
-0.269, 2.709e-10
-0.262, 3.119e-10
-0.255, 3.522e-10
-0.248, 3.911e-10
-0.241, 4.334e-10
-0.234, 4.795e-10
-0.227, 5.254e-10
-0.220, 5.677e-10
-0.213, 6.090e-10
-0.206, 6.499e-10
-0.199, 6.915e-10
-0.192, 7.346e-10
-0.185, 7.764e-10
-0.178, 8.182e-10
-0.171, 8.594e-10
-0.164, 9.013e-10
-0.157, 9.448e-10
-0.150, 9.844e-10
-0.143, 1.026e-9
-0.136, 1.065e-9
-0.129, 1.107e-9
-0.122, 1.143e-9
-0.115, 1.184e-9
-0.108, 1.227e-9
-0.101, 1.270e-9
-0.094, 1.308e-9
-0.087, 1.347e-9
-0.080, 1.385e-9
-0.073, 1.426e-9
-0.066, 1.467e-9
-0.059, 1.503e-9
-0.052, 1.544e-9
-0.045, 1.583e-9
-0.038, 1.620e-9
-0.031, 1.659e-9
-0.024, 1.701e-9
-0.017, 1.742e-9
-0.010, 1.782e-9
-0.003, 1.824e-9
0.004, 1.862e-9
0.011, 1.908e-9
0.018, 1.951e-9
0.025, 1.992e-9
0.032, 2.037e-9
0.039, 2.077e-9
0.046, 2.118e-9
0.053, 2.165e-9
0.060, 2.210e-9
0.067, 2.255e-9
0.074, 2.304e-9
0.081, 2.351e-9
0.088, 2.400e-9
0.095, 2.452e-9
0.102, 2.512e-9
0.109, 2.615e-9
0.116, 2.966e-9
0.123, 3.694e-9
0.130, 3.936e-9
0.137, 3.759e-9
0.144, 3.342e-9
0.151, 3.012e-9
0.158, 2.870e-9
0.165, 2.838e-9
0.172, 2.839e-9
0.179, 2.854e-9
0.186, 2.873e-9
0.193, 2.896e-9
0.200, 2.917e-9
0.207, 2.934e-9
0.214, 2.955e-9
0.221, 2.973e-9
0.228, 2.994e-9
0.235, 3.013e-9
0.242, 3.033e-9
0.249, 3.056e-9
0.256, 3.071e-9
0.263, 3.090e-9
0.270, 3.109e-9
0.277, 3.133e-9
0.284, 3.158e-9
0.291, 3.187e-9
0.298, 3.209e-9
0.305, 3.234e-9
0.312, 3.264e-9
0.319, 3.289e-9
0.326, 3.316e-9
0.333, 3.342e-9
0.340, 3.375e-9
0.347, 3.406e-9
0.354, 3.435e-9
0.361, 3.473e-9
0.368, 3.522e-9
0.375, 3.567e-9
0.382, 3.598e-9
0.389, 3.621e-9
0.396, 3.698e-9
0.403, 3.681e-9
0.410, 3.708e-9
0.417, 3.755e-9
0.424, 3.793e-9
0.431, 3.830e-9
0.438, 3.873e-9
0.445, 3.918e-9
0.452, 3.958e-9
0.459, 4.005e-9
0.466, 4.047e-9
0.473, 4.091e-9
0.480, 4.143e-9
0.487, 4.193e-9
0.494, 4.242e-9
0.499, 4.101e-9
0.492, 3.607e-9
0.485, 3.313e-9
0.478, 3.074e-9
0.471, 2.878e-9
0.464, 2.707e-9
0.457, 2.552e-9
0.450, 2.410e-9
0.443, 2.281e-9
0.436, 2.162e-9
0.429, 2.054e-9
0.422, 1.953e-9
0.415, 1.850e-9
0.408, 1.758e-9
0.401, 1.663e-9
0.394, 1.582e-9
0.387, 1.499e-9
0.380, 1.417e-9
0.373, 1.340e-9
0.366, 1.263e-9
0.359, 1.189e-9
0.352, 1.120e-9
0.345, 1.053e-9
0.338, 9.855e-10
0.331, 9.186e-10
0.324, 8.519e-10
0.317, 7.902e-10
0.310, 7.297e-10
0.303, 6.645e-10
0.296, 6.088e-10
0.289, 5.494e-10
0.282, 4.884e-10
0.275, 4.242e-10
0.268, 3.711e-10
0.261, 3.168e-10
0.254, 2.650e-10
0.247, 2.037e-10
0.240, 1.521e-10
0.233, 1.045e-10
0.226, 5.161e-11
0.219, 2.340e-13
0.212, -5.991e-11
0.205, -1.088e-10
0.198, -1.623e-10
0.191, -2.134e-10
0.184, -2.719e-10
0.177, -3.282e-10
0.170, -3.788e-10
0.163, -4.348e-10
0.156, -4.933e-10
0.149, -5.576e-10
0.142, -6.129e-10
0.135, -6.729e-10
0.128, -7.354e-10
0.121, -8.023e-10
0.114, -8.609e-10
0.107, -9.276e-10
0.100, -1.000e-9
0.093, -1.070e-9
0.086, -1.137e-9
0.079, -1.208e-9
0.072, -1.284e-9
0.065, -1.352e-9
0.058, -1.422e-9
0.051, -1.495e-9
0.044, -1.566e-9
0.037, -1.631e-9
0.030, -1.694e-9
0.023, -1.764e-9
0.016, -1.822e-9
0.009, -1.885e-9
0.002, -1.941e-9
-0.005, -1.996e-9
-0.012, -2.049e-9
-0.019, -2.102e-9
-0.026, -2.166e-9
-0.033, -2.242e-9
-0.040, -2.333e-9
-0.047, -2.458e-9
-0.054, -2.567e-9
-0.061, -2.626e-9
-0.068, -2.594e-9
-0.075, -2.519e-9
-0.082, -2.466e-9
-0.089, -2.472e-9
-0.096, -2.500e-9
-0.103, -2.500e-9
-0.110, -2.518e-9
-0.117, -2.533e-9
-0.124, -2.556e-9
-0.131, -2.571e-9
-0.138, -2.599e-9
-0.145, -2.612e-9
-0.152, -2.638e-9
-0.159, -2.656e-9
-0.166, -2.674e-9
-0.173, -2.696e-9
-0.180, -2.720e-9
-0.187, -2.744e-9
-0.194, -2.761e-9
-0.201, -2.780e-9
-0.208, -2.797e-9
-0.215, -2.822e-9
-0.222, -2.844e-9
-0.229, -2.864e-9
-0.236, -2.883e-9
-0.243, -2.904e-9
-0.250, -2.922e-9
-0.257, -2.943e-9
-0.264, -2.963e-9
-0.271, -2.982e-9
-0.278, -3.001e-9
-0.285, -3.016e-9
-0.292, -3.035e-9
-0.299, -3.050e-9
-0.306, -3.066e-9
-0.313, -3.084e-9
-0.320, -3.097e-9
-0.327, -3.111e-9
-0.334, -3.122e-9
-0.341, -3.136e-9
-0.348, -3.147e-9
-0.355, -3.158e-9
-0.362, -3.170e-9
-0.369, -3.183e-9
-0.376, -3.194e-9
-0.383, -3.208e-9
-0.390, -3.219e-9
-0.397, -3.231e-9
-0.404, -3.244e-9
-0.411, -3.253e-9
-0.418, -3.266e-9
-0.425, -3.277e-9
-0.432, -3.289e-9
-0.439, -3.302e-9
-0.446, -3.322e-9
-0.453, -3.333e-9
-0.460, -3.349e-9
-0.467, -3.367e-9
-0.474, -3.381e-9
-0.481, -3.401e-9
-0.488, -3.416e-9
-0.495, -3.435e-9
-0.499, -3.444e-9