Folder: Bioelectricity-generation-by-Symbiodinium-microadriaticum/Fig 4/Fig 3b CV surface light (part 2)

File: CV_surface_light_5.csv
Sept. 26, 2024   14:51:21
Cyclic Voltammetry
File: c:\users\secm\desktop\data\lmxlm2\+12 2319-1\26-09-2024 - lamp inside cage\region 2\+12 2319-1 fto cv_cells_light_surface_20_5.csv
Data Source:  Experiment
Instrument Model:  CHI920C
Ref. Electrode:
Header:
Note:

Init E (V) = -0.5
High E (V) = 0.5
Low E (V) = -0.5
Init P/N = P
Scan Rate (V/s) = 0.05
Segment = 2
Sample Interval (V) = 0.001
Quiet Time (sec) = 10
Sensitivity (A/V) = 1e-7

Results:

Channel 1:
Segment 1:
Ep = 0.132V
ip = 3.261e-9A
Ah = 3.230e-9C

Segment 2:

Potential/V, Current/A

-0.500, -1.951e-9
-0.493, -1.632e-9
-0.486, -1.488e-9
-0.479, -1.370e-9
-0.472, -1.277e-9
-0.465, -1.184e-9
-0.458, -1.105e-9
-0.451, -1.034e-9
-0.444, -9.576e-10
-0.437, -8.917e-10
-0.430, -8.309e-10
-0.423, -7.739e-10
-0.416, -7.122e-10
-0.409, -6.585e-10
-0.402, -6.047e-10
-0.395, -5.520e-10
-0.388, -4.939e-10
-0.381, -4.445e-10
-0.374, -3.938e-10
-0.367, -3.468e-10
-0.360, -3.034e-10
-0.353, -2.506e-10
-0.346, -2.036e-10
-0.339, -1.590e-10
-0.332, -1.146e-10
-0.325, -7.190e-11
-0.318, -2.784e-11
-0.311, 2.032e-11
-0.304, 6.350e-11
-0.297, 1.029e-10
-0.290, 1.442e-10
-0.283, 1.792e-10
-0.276, 2.249e-10
-0.269, 2.629e-10
-0.262, 3.037e-10
-0.255, 3.424e-10
-0.248, 3.804e-10
-0.241, 4.152e-10
-0.234, 4.559e-10
-0.227, 4.994e-10
-0.220, 5.373e-10
-0.213, 5.735e-10
-0.206, 6.101e-10
-0.199, 6.450e-10
-0.192, 6.780e-10
-0.185, 7.149e-10
-0.178, 7.509e-10
-0.171, 7.855e-10
-0.164, 8.199e-10
-0.157, 8.566e-10
-0.150, 8.901e-10
-0.143, 9.274e-10
-0.136, 9.643e-10
-0.129, 9.995e-10
-0.122, 1.034e-9
-0.115, 1.070e-9
-0.108, 1.109e-9
-0.101, 1.148e-9
-0.094, 1.186e-9
-0.087, 1.229e-9
-0.080, 1.272e-9
-0.073, 1.316e-9
-0.066, 1.360e-9
-0.059, 1.413e-9
-0.052, 1.465e-9
-0.045, 1.516e-9
-0.038, 1.568e-9
-0.031, 1.624e-9
-0.024, 1.688e-9
-0.017, 1.751e-9
-0.010, 1.819e-9
-0.003, 1.891e-9
0.004, 1.966e-9
0.011, 2.045e-9
0.018, 2.125e-9
0.025, 2.217e-9
0.032, 2.313e-9
0.039, 2.414e-9
0.046, 2.525e-9
0.053, 2.640e-9
0.060, 2.779e-9
0.067, 2.918e-9
0.074, 3.072e-9
0.081, 3.250e-9
0.088, 3.437e-9
0.095, 3.641e-9
0.102, 3.869e-9
0.109, 4.203e-9
0.116, 4.632e-9
0.123, 5.144e-9
0.130, 5.591e-9
0.137, 5.493e-9
0.144, 4.862e-9
0.151, 4.398e-9
0.158, 4.193e-9
0.165, 4.093e-9
0.172, 4.055e-9
0.179, 4.047e-9
0.186, 4.056e-9
0.193, 4.074e-9
0.200, 4.105e-9
0.207, 4.138e-9
0.214, 4.179e-9
0.221, 4.217e-9
0.228, 4.257e-9
0.235, 4.298e-9
0.242, 4.338e-9
0.249, 4.382e-9
0.256, 4.427e-9
0.263, 4.470e-9
0.270, 4.517e-9
0.277, 4.562e-9
0.284, 4.608e-9
0.291, 4.654e-9
0.298, 4.695e-9
0.305, 4.737e-9
0.312, 4.785e-9
0.319, 4.826e-9
0.326, 4.871e-9
0.333, 4.907e-9
0.340, 4.946e-9
0.347, 4.985e-9
0.354, 5.024e-9
0.361, 5.059e-9
0.368, 5.093e-9
0.375, 5.127e-9
0.382, 5.159e-9
0.389, 5.188e-9
0.396, 5.217e-9
0.403, 5.245e-9
0.410, 5.253e-9
0.417, 5.296e-9
0.424, 5.323e-9
0.431, 5.354e-9
0.438, 5.377e-9
0.445, 5.405e-9
0.452, 5.430e-9
0.459, 5.463e-9
0.466, 5.493e-9
0.473, 5.522e-9
0.480, 5.553e-9
0.487, 5.591e-9
0.494, 5.631e-9
0.499, 5.193e-9
0.492, 4.316e-9
0.485, 3.899e-9
0.478, 3.596e-9
0.471, 3.365e-9
0.464, 3.171e-9
0.457, 3.004e-9
0.450, 2.850e-9
0.443, 2.714e-9
0.436, 2.583e-9
0.429, 2.463e-9
0.422, 2.352e-9
0.415, 2.237e-9
0.408, 2.136e-9
0.401, 2.033e-9
0.394, 1.934e-9
0.387, 1.835e-9
0.380, 1.740e-9
0.373, 1.646e-9
0.366, 1.559e-9
0.359, 1.473e-9
0.352, 1.385e-9
0.345, 1.303e-9
0.338, 1.220e-9
0.331, 1.143e-9
0.324, 1.070e-9
0.317, 9.964e-10
0.310, 9.248e-10
0.303, 8.512e-10
0.296, 7.822e-10
0.289, 7.185e-10
0.282, 6.530e-10
0.275, 5.933e-10
0.268, 5.299e-10
0.261, 4.643e-10
0.254, 4.037e-10
0.247, 3.497e-10
0.240, 2.949e-10
0.233, 2.408e-10
0.226, 1.850e-10
0.219, 1.364e-10
0.212, 8.504e-11
0.205, 3.630e-11
0.198, -1.994e-11
0.191, -7.551e-11
0.184, -1.257e-10
0.177, -1.746e-10
0.170, -2.271e-10
0.163, -2.830e-10
0.156, -3.381e-10
0.149, -3.885e-10
0.142, -4.432e-10
0.135, -5.009e-10
0.128, -5.624e-10
0.121, -6.189e-10
0.114, -6.764e-10
0.107, -7.365e-10
0.100, -8.017e-10
0.093, -8.578e-10
0.086, -9.200e-10
0.079, -9.843e-10
0.072, -1.054e-9
0.065, -1.117e-9
0.058, -1.179e-9
0.051, -1.250e-9
0.044, -1.315e-9
0.037, -1.379e-9
0.030, -1.446e-9
0.023, -1.516e-9
0.016, -1.580e-9
0.009, -1.641e-9
0.002, -1.699e-9
-0.005, -1.762e-9
-0.012, -1.818e-9
-0.019, -1.878e-9
-0.026, -1.928e-9
-0.033, -1.981e-9
-0.040, -2.028e-9
-0.047, -2.076e-9
-0.054, -2.119e-9
-0.061, -2.158e-9
-0.068, -2.194e-9
-0.075, -2.228e-9
-0.082, -2.264e-9
-0.089, -2.295e-9
-0.096, -2.336e-9
-0.103, -2.362e-9
-0.110, -2.388e-9
-0.117, -2.416e-9
-0.124, -2.436e-9
-0.131, -2.465e-9
-0.138, -2.482e-9
-0.145, -2.505e-9
-0.152, -2.526e-9
-0.159, -2.545e-9
-0.166, -2.565e-9
-0.173, -2.586e-9
-0.180, -2.603e-9
-0.187, -2.624e-9
-0.194, -2.642e-9
-0.201, -2.662e-9
-0.208, -2.680e-9
-0.215, -2.713e-9
-0.222, -2.725e-9
-0.229, -2.746e-9
-0.236, -2.768e-9
-0.243, -2.788e-9
-0.250, -2.812e-9
-0.257, -2.835e-9
-0.264, -2.862e-9
-0.271, -2.887e-9
-0.278, -2.910e-9
-0.285, -2.936e-9
-0.292, -2.959e-9
-0.299, -2.988e-9
-0.306, -3.015e-9
-0.313, -3.042e-9
-0.320, -3.069e-9
-0.327, -3.100e-9
-0.334, -3.124e-9
-0.341, -3.153e-9
-0.348, -3.184e-9
-0.355, -3.215e-9
-0.362, -3.243e-9
-0.369, -3.273e-9
-0.376, -3.304e-9
-0.383, -3.338e-9
-0.390, -3.368e-9
-0.397, -3.399e-9
-0.404, -3.435e-9
-0.411, -3.465e-9
-0.418, -3.494e-9
-0.425, -3.525e-9
-0.432, -3.557e-9
-0.439, -3.590e-9
-0.446, -3.629e-9
-0.453, -3.666e-9
-0.460, -3.707e-9
-0.467, -3.741e-9
-0.474, -3.774e-9
-0.481, -3.816e-9
-0.488, -3.855e-9
-0.495, -3.896e-9
-0.499, -3.922e-9

File: CV_surface_light_7.csv
Sept. 26, 2024   14:53:40
Cyclic Voltammetry
File: c:\users\secm\desktop\data\lmxlm2\+12 2319-1\26-09-2024 - lamp inside cage\region 2\+12 2319-1 fto cv_cells_light_surface_20_7.csv
Data Source:  Experiment
Instrument Model:  CHI920C
Ref. Electrode:
Header:
Note:

Init E (V) = -0.5
High E (V) = 0.5
Low E (V) = -0.5
Init P/N = P
Scan Rate (V/s) = 0.05
Segment = 2
Sample Interval (V) = 0.001
Quiet Time (sec) = 10
Sensitivity (A/V) = 1e-7

Results:

Channel 1:
Segment 1:
Ep = 0.134V
ip = 7.832e-9A
Ah = 4.800e-9C

Segment 2:

Potential/V, Current/A

-0.500, -1.869e-9
-0.493, -1.550e-9
-0.486, -1.407e-9
-0.479, -1.296e-9
-0.472, -1.196e-9
-0.465, -1.111e-9
-0.458, -1.035e-9
-0.451, -9.556e-10
-0.444, -8.886e-10
-0.437, -8.251e-10
-0.430, -7.678e-10
-0.423, -7.047e-10
-0.416, -6.481e-10
-0.409, -5.931e-10
-0.402, -5.391e-10
-0.395, -4.795e-10
-0.388, -4.295e-10
-0.381, -3.786e-10
-0.374, -3.343e-10
-0.367, -2.884e-10
-0.360, -2.341e-10
-0.353, -1.901e-10
-0.346, -1.442e-10
-0.339, -1.018e-10
-0.332, -5.796e-11
-0.325, -1.000e-11
-0.318, 3.465e-11
-0.311, 7.666e-11
-0.304, 1.183e-10
-0.297, 1.552e-10
-0.290, 1.949e-10
-0.283, 2.382e-10
-0.276, 2.785e-10
-0.269, 3.159e-10
-0.262, 3.555e-10
-0.255, 3.914e-10
-0.248, 4.287e-10
-0.241, 4.711e-10
-0.234, 5.139e-10
-0.227, 5.496e-10
-0.220, 5.853e-10
-0.213, 6.221e-10
-0.206, 6.563e-10
-0.199, 6.913e-10
-0.192, 7.269e-10
-0.185, 7.603e-10
-0.178, 7.937e-10
-0.171, 8.274e-10
-0.164, 8.649e-10
-0.157, 8.965e-10
-0.150, 9.315e-10
-0.143, 9.686e-10
-0.136, 1.002e-9
-0.129, 1.037e-9
-0.122, 1.069e-9
-0.115, 1.105e-9
-0.108, 1.140e-9
-0.101, 1.183e-9
-0.094, 1.222e-9
-0.087, 1.259e-9
-0.080, 1.301e-9
-0.073, 1.346e-9
-0.066, 1.392e-9
-0.059, 1.444e-9
-0.052, 1.492e-9
-0.045, 1.544e-9
-0.038, 1.600e-9
-0.031, 1.658e-9
-0.024, 1.722e-9
-0.017, 1.788e-9
-0.010, 1.858e-9
-0.003, 1.937e-9
0.004, 2.011e-9
0.011, 2.092e-9
0.018, 2.184e-9
0.025, 2.281e-9
0.032, 2.385e-9
0.039, 2.495e-9
0.046, 2.615e-9
0.053, 2.755e-9
0.060, 2.902e-9
0.067, 3.063e-9
0.074, 3.251e-9
0.081, 3.458e-9
0.088, 3.694e-9
0.095, 3.954e-9
0.102, 4.298e-9
0.109, 5.007e-9
0.116, 5.946e-9
0.123, 6.794e-9
0.130, 9.284e-9
0.137, 9.405e-9
0.144, 6.301e-9
0.151, 4.924e-9
0.158, 4.481e-9
0.165, 4.301e-9
0.172, 4.224e-9
0.179, 4.191e-9
0.186, 4.187e-9
0.193, 4.198e-9
0.200, 4.217e-9
0.207, 4.238e-9
0.214, 4.269e-9
0.221, 4.300e-9
0.228, 4.333e-9
0.235, 4.375e-9
0.242, 4.413e-9
0.249, 4.456e-9
0.256, 4.494e-9
0.263, 4.537e-9
0.270, 4.579e-9
0.277, 4.622e-9
0.284, 4.664e-9
0.291, 4.707e-9
0.298, 4.747e-9
0.305, 4.787e-9
0.312, 4.831e-9
0.319, 4.875e-9
0.326, 4.912e-9
0.333, 4.949e-9
0.340, 4.986e-9
0.347, 5.023e-9
0.354, 5.056e-9
0.361, 5.094e-9
0.368, 5.122e-9
0.375, 5.150e-9
0.382, 5.183e-9
0.389, 5.208e-9
0.396, 5.235e-9
0.403, 5.264e-9
0.410, 5.268e-9
0.417, 5.310e-9
0.424, 5.338e-9
0.431, 5.366e-9
0.438, 5.391e-9
0.445, 5.415e-9
0.452, 5.444e-9
0.459, 5.474e-9
0.466, 5.503e-9
0.473, 5.532e-9
0.480, 5.568e-9
0.487, 5.600e-9
0.494, 5.638e-9
0.499, 5.189e-9
0.492, 4.296e-9
0.485, 3.873e-9
0.478, 3.573e-9
0.471, 3.340e-9
0.464, 3.143e-9
0.457, 2.975e-9
0.450, 2.828e-9
0.443, 2.688e-9
0.436, 2.558e-9
0.429, 2.439e-9
0.422, 2.323e-9
0.415, 2.212e-9
0.408, 2.109e-9
0.401, 2.006e-9
0.394, 1.906e-9
0.387, 1.803e-9
0.380, 1.709e-9
0.373, 1.613e-9
0.366, 1.524e-9
0.359, 1.436e-9
0.352, 1.345e-9
0.345, 1.262e-9
0.338, 1.176e-9
0.331, 1.101e-9
0.324, 1.023e-9
0.317, 9.480e-10
0.310, 8.707e-10
0.303, 7.961e-10
0.296, 7.267e-10
0.289, 6.577e-10
0.282, 5.931e-10
0.275, 5.283e-10
0.268, 4.585e-10
0.261, 3.958e-10
0.254, 3.392e-10
0.247, 2.803e-10
0.240, 2.247e-10
0.233, 1.675e-10
0.226, 1.166e-10
0.219, 6.691e-11
0.212, 1.525e-11
0.205, -3.808e-11
0.198, -9.159e-11
0.191, -1.389e-10
0.184, -1.897e-10
0.177, -2.414e-10
0.170, -2.960e-10
0.163, -3.444e-10
0.156, -3.957e-10
0.149, -4.481e-10
0.142, -5.052e-10
0.135, -5.665e-10
0.128, -6.208e-10
0.121, -6.790e-10
0.114, -7.390e-10
0.107, -8.009e-10
0.100, -8.613e-10
0.093, -9.253e-10
0.086, -9.923e-10
0.079, -1.067e-9
0.072, -1.133e-9
0.065, -1.204e-9
0.058, -1.283e-9
0.051, -1.352e-9
0.044, -1.430e-9
0.037, -1.516e-9
0.030, -1.594e-9
0.023, -1.671e-9
0.016, -1.752e-9
0.009, -1.829e-9
0.002, -1.911e-9
-0.005, -1.982e-9
-0.012, -2.052e-9
-0.019, -2.120e-9
-0.026, -2.178e-9
-0.033, -2.243e-9
-0.040, -2.306e-9
-0.047, -2.382e-9
-0.054, -2.456e-9
-0.061, -2.484e-9
-0.068, -2.478e-9
-0.075, -2.479e-9
-0.082, -2.498e-9
-0.089, -2.523e-9
-0.096, -2.559e-9
-0.103, -2.573e-9
-0.110, -2.611e-9
-0.117, -2.607e-9
-0.124, -2.623e-9
-0.131, -2.638e-9
-0.138, -2.658e-9
-0.145, -2.665e-9
-0.152, -2.718e-9
-0.159, -2.696e-9
-0.166, -2.721e-9
-0.173, -2.723e-9
-0.180, -2.746e-9
-0.187, -2.748e-9
-0.194, -2.761e-9
-0.201, -2.783e-9
-0.208, -2.807e-9
-0.215, -2.830e-9
-0.222, -2.823e-9
-0.229, -2.841e-9
-0.236, -2.876e-9
-0.243, -2.880e-9
-0.250, -2.895e-9
-0.257, -2.913e-9
-0.264, -2.931e-9
-0.271, -2.956e-9
-0.278, -2.969e-9
-0.285, -2.989e-9
-0.292, -3.012e-9
-0.299, -3.035e-9
-0.306, -3.057e-9
-0.313, -3.084e-9
-0.320, -3.107e-9
-0.327, -3.130e-9
-0.334, -3.154e-9
-0.341, -3.183e-9
-0.348, -3.214e-9
-0.355, -3.234e-9
-0.362, -3.262e-9
-0.369, -3.284e-9
-0.376, -3.315e-9
-0.383, -3.345e-9
-0.390, -3.370e-9
-0.397, -3.399e-9
-0.404, -3.428e-9
-0.411, -3.459e-9
-0.418, -3.486e-9
-0.425, -3.512e-9
-0.432, -3.541e-9
-0.439, -3.571e-9
-0.446, -3.604e-9
-0.453, -3.638e-9
-0.460, -3.674e-9
-0.467, -3.712e-9
-0.474, -3.745e-9
-0.481, -3.776e-9
-0.488, -3.813e-9
-0.495, -3.854e-9
-0.499, -3.875e-9

File: CV_surface_light_8.csv
Sept. 26, 2024   14:54:48
Cyclic Voltammetry
File: c:\users\secm\desktop\data\lmxlm2\+12 2319-1\26-09-2024 - lamp inside cage\region 2\+12 2319-1 fto cv_cells_light_surface_20_8.csv
Data Source:  Experiment
Instrument Model:  CHI920C
Ref. Electrode:
Header:
Note:

Init E (V) = -0.5
High E (V) = 0.5
Low E (V) = -0.5
Init P/N = P
Scan Rate (V/s) = 0.05
Segment = 2
Sample Interval (V) = 0.001
Quiet Time (sec) = 10
Sensitivity (A/V) = 1e-7

Results:

Channel 1:
Segment 1:
Ep = 0.134V
ip = 1.012e-8A
Ah = 5.449e-9C

Segment 2:

Potential/V, Current/A

-0.500, -1.836e-9
-0.493, -1.518e-9
-0.486, -1.374e-9
-0.479, -1.264e-9
-0.472, -1.165e-9
-0.465, -1.081e-9
-0.458, -1.002e-9
-0.451, -9.277e-10
-0.444, -8.599e-10
-0.437, -8.010e-10
-0.430, -7.357e-10
-0.423, -6.758e-10
-0.416, -6.202e-10
-0.409, -5.680e-10
-0.402, -5.086e-10
-0.395, -4.535e-10
-0.388, -4.027e-10
-0.381, -3.565e-10
-0.374, -3.120e-10
-0.367, -2.600e-10
-0.360, -2.094e-10
-0.353, -1.650e-10
-0.346, -1.210e-10
-0.339, -7.834e-11
-0.332, -3.466e-11
-0.325, 1.388e-11
-0.318, 5.551e-11
-0.311, 9.703e-11
-0.304, 1.399e-10
-0.297, 1.738e-10
-0.290, 2.181e-10
-0.283, 2.593e-10
-0.276, 2.995e-10
-0.269, 3.354e-10
-0.262, 3.739e-10
-0.255, 4.088e-10
-0.248, 4.502e-10
-0.241, 4.939e-10
-0.234, 5.324e-10
-0.227, 5.678e-10
-0.220, 6.038e-10
-0.213, 6.363e-10
-0.206, 6.713e-10
-0.199, 7.063e-10
-0.192, 7.407e-10
-0.185, 7.752e-10
-0.178, 8.063e-10
-0.171, 8.434e-10
-0.164, 8.744e-10
-0.157, 9.109e-10
-0.150, 9.450e-10
-0.143, 9.787e-10
-0.136, 1.013e-9
-0.129, 1.046e-9
-0.122, 1.080e-9
-0.115, 1.114e-9
-0.108, 1.148e-9
-0.101, 1.190e-9
-0.094, 1.228e-9
-0.087, 1.267e-9
-0.080, 1.308e-9
-0.073, 1.353e-9
-0.066, 1.397e-9
-0.059, 1.447e-9
-0.052, 1.496e-9
-0.045, 1.548e-9
-0.038, 1.603e-9
-0.031, 1.663e-9
-0.024, 1.725e-9
-0.017, 1.790e-9
-0.010, 1.860e-9
-0.003, 1.939e-9
0.004, 2.013e-9
0.011, 2.097e-9
0.018, 2.189e-9
0.025, 2.287e-9
0.032, 2.391e-9
0.039, 2.504e-9
0.046, 2.625e-9
0.053, 2.766e-9
0.060, 2.919e-9
0.067, 3.082e-9
0.074, 3.277e-9
0.081, 3.491e-9
0.088, 3.736e-9
0.095, 4.012e-9
0.102, 4.400e-9
0.109, 5.374e-9
0.116, 6.779e-9
0.123, 7.717e-9
0.130, 1.090e-8
0.137, 1.129e-8
0.144, 6.709e-9
0.151, 4.988e-9
0.158, 4.493e-9
0.165, 4.306e-9
0.172, 4.226e-9
0.179, 4.190e-9
0.186, 4.186e-9
0.193, 4.193e-9
0.200, 4.215e-9
0.207, 4.237e-9
0.214, 4.269e-9
0.221, 4.298e-9
0.228, 4.331e-9
0.235, 4.369e-9
0.242, 4.408e-9
0.249, 4.449e-9
0.256, 4.489e-9
0.263, 4.531e-9
0.270, 4.572e-9
0.277, 4.616e-9
0.284, 4.657e-9
0.291, 4.700e-9
0.298, 4.738e-9
0.305, 4.779e-9
0.312, 4.826e-9
0.319, 4.864e-9
0.326, 4.903e-9
0.333, 4.939e-9
0.340, 4.977e-9
0.347, 5.009e-9
0.354, 5.044e-9
0.361, 5.077e-9
0.368, 5.109e-9
0.375, 5.138e-9
0.382, 5.166e-9
0.389, 5.194e-9
0.396, 5.221e-9
0.403, 5.246e-9
0.410, 5.253e-9
0.417, 5.291e-9
0.424, 5.316e-9
0.431, 5.346e-9
0.438, 5.373e-9
0.445, 5.398e-9
0.452, 5.422e-9
0.459, 5.455e-9
0.466, 5.484e-9
0.473, 5.519e-9
0.480, 5.549e-9
0.487, 5.585e-9
0.494, 5.624e-9
0.499, 5.169e-9
0.492, 4.276e-9
0.485, 3.851e-9
0.478, 3.554e-9
0.471, 3.319e-9
0.464, 3.122e-9
0.457, 2.959e-9
0.450, 2.808e-9
0.443, 2.669e-9
0.436, 2.543e-9
0.429, 2.422e-9
0.422, 2.306e-9
0.415, 2.194e-9
0.408, 2.093e-9
0.401, 1.987e-9
0.394, 1.885e-9
0.387, 1.786e-9
0.380, 1.692e-9
0.373, 1.598e-9
0.366, 1.507e-9
0.359, 1.417e-9
0.352, 1.327e-9
0.345, 1.243e-9
0.338, 1.155e-9
0.331, 1.081e-9
0.324, 1.001e-9
0.317, 9.261e-10
0.310, 8.492e-10
0.303, 7.752e-10
0.296, 7.024e-10
0.289, 6.354e-10
0.282, 5.689e-10
0.275, 5.029e-10
0.268, 4.308e-10
0.261, 3.686e-10
0.254, 3.108e-10
0.247, 2.527e-10
0.240, 1.976e-10
0.233, 1.448e-10
0.226, 9.138e-11
0.219, 4.137e-11
0.212, -1.332e-11
0.205, -6.381e-11
0.198, -1.163e-10
0.191, -1.633e-10
0.184, -2.127e-10
0.177, -2.672e-10
0.170, -3.215e-10
0.163, -3.675e-10
0.156, -4.197e-10
0.149, -4.705e-10
0.142, -5.329e-10
0.135, -5.879e-10
0.128, -6.449e-10
0.121, -7.036e-10
0.114, -7.652e-10
0.107, -8.239e-10
0.100, -8.869e-10
0.093, -9.521e-10
0.086, -1.023e-9
0.079, -1.094e-9
0.072, -1.164e-9
0.065, -1.244e-9
0.058, -1.321e-9
0.051, -1.398e-9
0.044, -1.483e-9
0.037, -1.571e-9
0.030, -1.654e-9
0.023, -1.743e-9
0.016, -1.827e-9
0.009, -1.917e-9
0.002, -2.003e-9
-0.005, -2.081e-9
-0.012, -2.159e-9
-0.019, -2.230e-9
-0.026, -2.294e-9
-0.033, -2.368e-9
-0.040, -2.445e-9
-0.047, -2.527e-9
-0.054, -2.602e-9
-0.061, -2.591e-9
-0.068, -2.583e-9
-0.075, -2.587e-9
-0.082, -2.609e-9
-0.089, -2.644e-9
-0.096, -2.647e-9
-0.103, -2.673e-9
-0.110, -2.730e-9
-0.117, -2.710e-9
-0.124, -2.715e-9
-0.131, -2.735e-9
-0.138, -2.741e-9
-0.145, -2.767e-9
-0.152, -2.766e-9
-0.159, -2.771e-9
-0.166, -2.781e-9
-0.173, -2.810e-9
-0.180, -2.819e-9
-0.187, -2.819e-9
-0.194, -2.831e-9
-0.201, -2.837e-9
-0.208, -2.851e-9
-0.215, -2.863e-9
-0.222, -2.882e-9
-0.229, -2.890e-9
-0.236, -2.922e-9
-0.243, -2.919e-9
-0.250, -2.944e-9
-0.257, -2.954e-9
-0.264, -2.972e-9
-0.271, -2.992e-9
-0.278, -3.010e-9
-0.285, -3.026e-9
-0.292, -3.046e-9
-0.299, -3.067e-9
-0.306, -3.094e-9
-0.313, -3.120e-9
-0.320, -3.145e-9
-0.327, -3.157e-9
-0.334, -3.180e-9
-0.341, -3.206e-9
-0.348, -3.229e-9
-0.355, -3.253e-9
-0.362, -3.276e-9
-0.369, -3.304e-9
-0.376, -3.330e-9
-0.383, -3.356e-9
-0.390, -3.384e-9
-0.397, -3.409e-9
-0.404, -3.439e-9
-0.411, -3.465e-9
-0.418, -3.491e-9
-0.425, -3.517e-9
-0.432, -3.548e-9
-0.439, -3.574e-9
-0.446, -3.605e-9
-0.453, -3.643e-9
-0.460, -3.675e-9
-0.467, -3.711e-9
-0.474, -3.740e-9
-0.481, -3.773e-9
-0.488, -3.809e-9
-0.495, -3.845e-9
-0.499, -3.866e-9

File: CV_surface_light_9.csv
Sept. 26, 2024   14:55:57
Cyclic Voltammetry
File: c:\users\secm\desktop\data\lmxlm2\+12 2319-1\26-09-2024 - lamp inside cage\region 2\+12 2319-1 fto cv_cells_light_surface_20_9.csv
Data Source:  Experiment
Instrument Model:  CHI920C
Ref. Electrode:
Header:
Note:

Init E (V) = -0.5
High E (V) = 0.5
Low E (V) = -0.5
Init P/N = P
Scan Rate (V/s) = 0.05
Segment = 2
Sample Interval (V) = 0.001
Quiet Time (sec) = 10
Sensitivity (A/V) = 1e-7

Results:

Channel 1:
Segment 1:
Ep = 0.134V
ip = 1.358e-8A
Ah = 6.244e-9C

Segment 2:

Potential/V, Current/A

-0.500, -1.815e-9
-0.493, -1.493e-9
-0.486, -1.352e-9
-0.479, -1.243e-9
-0.472, -1.146e-9
-0.465, -1.062e-9
-0.458, -9.800e-10
-0.451, -9.081e-10
-0.444, -8.412e-10
-0.437, -7.799e-10
-0.430, -7.175e-10
-0.423, -6.591e-10
-0.416, -6.032e-10
-0.409, -5.498e-10
-0.402, -4.915e-10
-0.395, -4.396e-10
-0.388, -3.880e-10
-0.381, -3.426e-10
-0.374, -2.956e-10
-0.367, -2.434e-10
-0.360, -1.951e-10
-0.353, -1.532e-10
-0.346, -1.088e-10
-0.339, -6.664e-11
-0.332, -1.936e-11
-0.325, 2.821e-11
-0.318, 6.798e-11
-0.311, 1.082e-10
-0.304, 1.492e-10
-0.297, 1.883e-10
-0.290, 2.305e-10
-0.283, 2.689e-10
-0.276, 3.081e-10
-0.269, 3.456e-10
-0.262, 3.843e-10
-0.255, 4.186e-10
-0.248, 4.603e-10
-0.241, 5.016e-10
-0.234, 5.390e-10
-0.227, 5.754e-10
-0.220, 6.108e-10
-0.213, 6.450e-10
-0.206, 6.772e-10
-0.199, 7.134e-10
-0.192, 7.472e-10
-0.185, 7.813e-10
-0.178, 8.125e-10
-0.171, 8.473e-10
-0.164, 8.825e-10
-0.157, 9.146e-10
-0.150, 9.501e-10
-0.143, 9.834e-10
-0.136, 1.015e-9
-0.129, 1.049e-9
-0.122, 1.083e-9
-0.115, 1.114e-9
-0.108, 1.151e-9
-0.101, 1.194e-9
-0.094, 1.231e-9
-0.087, 1.269e-9
-0.080, 1.307e-9
-0.073, 1.353e-9
-0.066, 1.400e-9
-0.059, 1.449e-9
-0.052, 1.498e-9
-0.045, 1.548e-9
-0.038, 1.604e-9
-0.031, 1.664e-9
-0.024, 1.728e-9
-0.017, 1.794e-9
-0.010, 1.865e-9
-0.003, 1.942e-9
0.004, 2.019e-9
0.011, 2.106e-9
0.018, 2.200e-9
0.025, 2.299e-9
0.032, 2.409e-9
0.039, 2.521e-9
0.046, 2.652e-9
0.053, 2.797e-9
0.060, 2.951e-9
0.067, 3.125e-9
0.074, 3.328e-9
0.081, 3.556e-9
0.088, 3.818e-9
0.095, 4.113e-9
0.102, 4.552e-9
0.109, 5.648e-9
0.116, 7.386e-9
0.123, 9.017e-9
0.130, 1.321e-8
0.137, 1.395e-8
0.144, 7.190e-9
0.151, 5.097e-9
0.158, 4.562e-9
0.165, 4.357e-9
0.172, 4.271e-9
0.179, 4.232e-9
0.186, 4.223e-9
0.193, 4.226e-9
0.200, 4.244e-9
0.207, 4.260e-9
0.214, 4.286e-9
0.221, 4.316e-9
0.228, 4.350e-9
0.235, 4.390e-9
0.242, 4.425e-9
0.249, 4.462e-9
0.256, 4.500e-9
0.263, 4.541e-9
0.270, 4.581e-9
0.277, 4.625e-9
0.284, 4.666e-9
0.291, 4.703e-9
0.298, 4.743e-9
0.305, 4.782e-9
0.312, 4.827e-9
0.319, 4.867e-9
0.326, 4.904e-9
0.333, 4.938e-9
0.340, 4.975e-9
0.347, 5.006e-9
0.354, 5.039e-9
0.361, 5.072e-9
0.368, 5.103e-9
0.375, 5.128e-9
0.382, 5.159e-9
0.389, 5.184e-9
0.396, 5.210e-9
0.403, 5.233e-9
0.410, 5.241e-9
0.417, 5.280e-9
0.424, 5.303e-9
0.431, 5.333e-9
0.438, 5.359e-9
0.445, 5.383e-9
0.452, 5.409e-9
0.459, 5.439e-9
0.466, 5.468e-9
0.473, 5.503e-9
0.480, 5.534e-9
0.487, 5.571e-9
0.494, 5.611e-9
0.499, 5.155e-9
0.492, 4.256e-9
0.485, 3.827e-9
0.478, 3.530e-9
0.471, 3.294e-9
0.464, 3.097e-9
0.457, 2.934e-9
0.450, 2.786e-9
0.443, 2.643e-9
0.436, 2.517e-9
0.429, 2.396e-9
0.422, 2.281e-9
0.415, 2.169e-9
0.408, 2.071e-9
0.401, 1.964e-9
0.394, 1.860e-9
0.387, 1.759e-9
0.380, 1.663e-9
0.373, 1.570e-9
0.366, 1.481e-9
0.359, 1.388e-9
0.352, 1.298e-9
0.345, 1.216e-9
0.338, 1.129e-9
0.331, 1.051e-9
0.324, 9.729e-10
0.317, 8.945e-10
0.310, 8.163e-10
0.303, 7.420e-10
0.296, 6.700e-10
0.289, 6.009e-10
0.282, 5.325e-10
0.275, 4.606e-10
0.268, 3.943e-10
0.261, 3.338e-10
0.254, 2.763e-10
0.247, 2.156e-10
0.240, 1.588e-10
0.233, 1.080e-10
0.226, 5.619e-11
0.219, 6.239e-13
0.212, -5.280e-11
0.205, -1.003e-10
0.198, -1.501e-10
0.191, -1.997e-10
0.184, -2.504e-10
0.177, -3.047e-10
0.170, -3.512e-10
0.163, -4.007e-10
0.156, -4.526e-10
0.149, -5.105e-10
0.142, -5.673e-10
0.135, -6.212e-10
0.128, -6.806e-10
0.121, -7.377e-10
0.114, -8.001e-10
0.107, -8.591e-10
0.100, -9.267e-10
0.093, -9.947e-10
0.086, -1.067e-9
0.079, -1.138e-9
0.072, -1.213e-9
0.065, -1.297e-9
0.058, -1.376e-9
0.051, -1.461e-9
0.044, -1.555e-9
0.037, -1.644e-9
0.030, -1.740e-9
0.023, -1.836e-9
0.016, -1.936e-9
0.009, -2.033e-9
0.002, -2.129e-9
-0.005, -2.218e-9
-0.012, -2.301e-9
-0.019, -2.383e-9
-0.026, -2.459e-9
-0.033, -2.544e-9
-0.040, -2.641e-9
-0.047, -2.755e-9
-0.054, -2.832e-9
-0.061, -2.799e-9
-0.068, -2.752e-9
-0.075, -2.751e-9
-0.082, -2.760e-9
-0.089, -2.780e-9
-0.096, -2.820e-9
-0.103, -2.822e-9
-0.110, -2.833e-9
-0.117, -2.829e-9
-0.124, -2.933e-9
-0.131, -2.885e-9
-0.138, -2.861e-9
-0.145, -2.867e-9
-0.152, -2.873e-9
-0.159, -2.890e-9
-0.166, -2.884e-9
-0.173, -2.914e-9
-0.180, -2.906e-9
-0.187, -2.907e-9
-0.194, -2.928e-9
-0.201, -2.949e-9
-0.208, -2.932e-9
-0.215, -2.943e-9
-0.222, -2.962e-9
-0.229, -2.970e-9
-0.236, -2.986e-9
-0.243, -3.010e-9
-0.250, -3.000e-9
-0.257, -3.014e-9
-0.264, -3.031e-9
-0.271, -3.059e-9
-0.278, -3.070e-9
-0.285, -3.088e-9
-0.292, -3.113e-9
-0.299, -3.119e-9
-0.306, -3.133e-9
-0.313, -3.155e-9
-0.320, -3.176e-9
-0.327, -3.227e-9
-0.334, -3.218e-9
-0.341, -3.239e-9
-0.348, -3.258e-9
-0.355, -3.285e-9
-0.362, -3.302e-9
-0.369, -3.336e-9
-0.376, -3.365e-9
-0.383, -3.381e-9
-0.390, -3.404e-9
-0.397, -3.427e-9
-0.404, -3.455e-9
-0.411, -3.491e-9
-0.418, -3.503e-9
-0.425, -3.527e-9
-0.432, -3.555e-9
-0.439, -3.582e-9
-0.446, -3.613e-9
-0.453, -3.643e-9
-0.460, -3.677e-9
-0.467, -3.714e-9
-0.474, -3.740e-9
-0.481, -3.774e-9
-0.488, -3.807e-9
-0.495, -3.841e-9
-0.499, -3.862e-9