Folder: Bioelectricity-generation-by-Symbiodinium-microadriaticum/Fig 4/Fig 3b CV surface light

File: CV_surface_light_1.csv
Sept. 26, 2024   14:46:40
Cyclic Voltammetry
File: c:\users\secm\desktop\data\lmxlm2\+12 2319-1\26-09-2024 - lamp inside cage\region 2\+12 2319-1 fto cv_cells_light_surface_20.csv
Data Source:  Experiment
Instrument Model:  CHI920C
Ref. Electrode:
Header:
Note:

Init E (V) = -0.5
High E (V) = 0.5
Low E (V) = -0.5
Init P/N = P
Scan Rate (V/s) = 0.05
Segment = 2
Sample Interval (V) = 0.001
Quiet Time (sec) = 10
Sensitivity (A/V) = 1e-7

Results:

Channel 1:
Segment 1:

Segment 2:

Potential/V, Current/A

-0.500, -3.472e-9
-0.493, -3.107e-9
-0.486, -2.918e-9
-0.479, -2.769e-9
-0.472, -2.643e-9
-0.465, -2.532e-9
-0.458, -2.432e-9
-0.451, -2.337e-9
-0.444, -2.249e-9
-0.437, -2.166e-9
-0.430, -2.090e-9
-0.423, -2.018e-9
-0.416, -1.943e-9
-0.409, -1.875e-9
-0.402, -1.807e-9
-0.395, -1.745e-9
-0.388, -1.679e-9
-0.381, -1.623e-9
-0.374, -1.566e-9
-0.367, -1.509e-9
-0.360, -1.446e-9
-0.353, -1.391e-9
-0.346, -1.338e-9
-0.339, -1.284e-9
-0.332, -1.227e-9
-0.325, -1.172e-9
-0.318, -1.119e-9
-0.311, -1.069e-9
-0.304, -1.016e-9
-0.297, -9.608e-10
-0.290, -9.109e-10
-0.283, -8.590e-10
-0.276, -8.133e-10
-0.269, -7.646e-10
-0.262, -7.118e-10
-0.255, -6.651e-10
-0.248, -6.131e-10
-0.241, -5.685e-10
-0.234, -5.145e-10
-0.227, -4.642e-10
-0.220, -4.160e-10
-0.213, -3.676e-10
-0.206, -3.234e-10
-0.199, -2.735e-10
-0.192, -2.225e-10
-0.185, -1.757e-10
-0.178, -1.288e-10
-0.171, -8.311e-11
-0.164, -3.720e-11
-0.157, 1.534e-11
-0.150, 6.106e-11
-0.143, 1.043e-10
-0.136, 1.493e-10
-0.129, 1.919e-10
-0.122, 2.423e-10
-0.115, 2.863e-10
-0.108, 3.318e-10
-0.101, 3.802e-10
-0.094, 4.212e-10
-0.087, 4.752e-10
-0.080, 5.231e-10
-0.073, 5.686e-10
-0.066, 6.164e-10
-0.059, 6.614e-10
-0.052, 7.091e-10
-0.045, 7.565e-10
-0.038, 8.010e-10
-0.031, 8.541e-10
-0.024, 9.049e-10
-0.017, 9.549e-10
-0.010, 1.005e-9
-0.003, 1.056e-9
0.004, 1.104e-9
0.011, 1.156e-9
0.018, 1.214e-9
0.025, 1.269e-9
0.032, 1.323e-9
0.039, 1.381e-9
0.046, 1.442e-9
0.053, 1.499e-9
0.060, 1.560e-9
0.067, 1.618e-9
0.074, 1.679e-9
0.081, 1.742e-9
0.088, 1.806e-9
0.095, 1.867e-9
0.102, 1.935e-9
0.109, 1.997e-9
0.116, 2.058e-9
0.123, 2.117e-9
0.130, 2.185e-9
0.137, 2.246e-9
0.144, 2.306e-9
0.151, 2.370e-9
0.158, 2.433e-9
0.165, 2.491e-9
0.172, 2.551e-9
0.179, 2.607e-9
0.186, 2.668e-9
0.193, 2.730e-9
0.200, 2.789e-9
0.207, 2.837e-9
0.214, 2.896e-9
0.221, 2.946e-9
0.228, 3.000e-9
0.235, 3.048e-9
0.242, 3.094e-9
0.249, 3.144e-9
0.256, 3.194e-9
0.263, 3.244e-9
0.270, 3.288e-9
0.277, 3.331e-9
0.284, 3.377e-9
0.291, 3.422e-9
0.298, 3.462e-9
0.305, 3.506e-9
0.312, 3.548e-9
0.319, 3.587e-9
0.326, 3.628e-9
0.333, 3.669e-9
0.340, 3.708e-9
0.347, 3.749e-9
0.354, 3.785e-9
0.361, 3.821e-9
0.368, 3.855e-9
0.375, 3.888e-9
0.382, 3.926e-9
0.389, 3.958e-9
0.396, 3.995e-9
0.403, 4.023e-9
0.410, 4.044e-9
0.417, 4.084e-9
0.424, 4.114e-9
0.431, 4.151e-9
0.438, 4.184e-9
0.445, 4.217e-9
0.452, 4.251e-9
0.459, 4.282e-9
0.466, 4.311e-9
0.473, 4.346e-9
0.480, 4.383e-9
0.487, 4.413e-9
0.494, 4.450e-9
0.499, 4.129e-9
0.492, 3.423e-9
0.485, 3.059e-9
0.478, 2.800e-9
0.471, 2.585e-9
0.464, 2.408e-9
0.457, 2.252e-9
0.450, 2.113e-9
0.443, 1.991e-9
0.436, 1.870e-9
0.429, 1.760e-9
0.422, 1.656e-9
0.415, 1.558e-9
0.408, 1.473e-9
0.401, 1.374e-9
0.394, 1.287e-9
0.387, 1.204e-9
0.380, 1.123e-9
0.373, 1.051e-9
0.366, 9.767e-10
0.359, 9.006e-10
0.352, 8.301e-10
0.345, 7.623e-10
0.338, 6.961e-10
0.331, 6.328e-10
0.324, 5.683e-10
0.317, 5.096e-10
0.310, 4.438e-10
0.303, 3.827e-10
0.296, 3.298e-10
0.289, 2.789e-10
0.282, 2.234e-10
0.275, 1.699e-10
0.268, 1.238e-10
0.261, 7.354e-11
0.254, 2.675e-11
0.247, -2.482e-11
0.240, -7.629e-11
0.233, -1.222e-10
0.226, -1.694e-10
0.219, -2.174e-10
0.212, -2.671e-10
0.205, -3.155e-10
0.198, -3.597e-10
0.191, -4.083e-10
0.184, -4.572e-10
0.177, -5.076e-10
0.170, -5.629e-10
0.163, -6.108e-10
0.156, -6.621e-10
0.149, -7.143e-10
0.142, -7.714e-10
0.135, -8.243e-10
0.128, -8.766e-10
0.121, -9.359e-10
0.114, -9.937e-10
0.107, -1.058e-9
0.100, -1.116e-9
0.093, -1.177e-9
0.086, -1.239e-9
0.079, -1.304e-9
0.072, -1.360e-9
0.065, -1.423e-9
0.058, -1.485e-9
0.051, -1.550e-9
0.044, -1.611e-9
0.037, -1.667e-9
0.030, -1.725e-9
0.023, -1.787e-9
0.016, -1.845e-9
0.009, -1.903e-9
0.002, -1.962e-9
-0.005, -2.017e-9
-0.012, -2.071e-9
-0.019, -2.128e-9
-0.026, -2.179e-9
-0.033, -2.233e-9
-0.040, -2.282e-9
-0.047, -2.330e-9
-0.054, -2.381e-9
-0.061, -2.425e-9
-0.068, -2.470e-9
-0.075, -2.513e-9
-0.082, -2.555e-9
-0.089, -2.594e-9
-0.096, -2.630e-9
-0.103, -2.673e-9
-0.110, -2.705e-9
-0.117, -2.739e-9
-0.124, -2.771e-9
-0.131, -2.799e-9
-0.138, -2.832e-9
-0.145, -2.862e-9
-0.152, -2.890e-9
-0.159, -2.915e-9
-0.166, -2.941e-9
-0.173, -2.971e-9
-0.180, -2.997e-9
-0.187, -3.021e-9
-0.194, -3.044e-9
-0.201, -3.071e-9
-0.208, -3.094e-9
-0.215, -3.119e-9
-0.222, -3.143e-9
-0.229, -3.170e-9
-0.236, -3.192e-9
-0.243, -3.220e-9
-0.250, -3.248e-9
-0.257, -3.271e-9
-0.264, -3.299e-9
-0.271, -3.328e-9
-0.278, -3.356e-9
-0.285, -3.383e-9
-0.292, -3.411e-9
-0.299, -3.441e-9
-0.306, -3.471e-9
-0.313, -3.498e-9
-0.320, -3.525e-9
-0.327, -3.554e-9
-0.334, -3.586e-9
-0.341, -3.622e-9
-0.348, -3.655e-9
-0.355, -3.692e-9
-0.362, -3.726e-9
-0.369, -3.759e-9
-0.376, -3.793e-9
-0.383, -3.831e-9
-0.390, -3.868e-9
-0.397, -3.908e-9
-0.404, -3.950e-9
-0.411, -3.991e-9
-0.418, -4.030e-9
-0.425, -4.073e-9
-0.432, -4.121e-9
-0.439, -4.169e-9
-0.446, -4.217e-9
-0.453, -4.262e-9
-0.460, -4.315e-9
-0.467, -4.362e-9
-0.474, -4.415e-9
-0.481, -4.473e-9
-0.488, -4.527e-9
-0.495, -4.586e-9
-0.499, -4.622e-9

File: CV_surface_light_2.csv
Sept. 26, 2024   14:48:05
Cyclic Voltammetry
File: c:\users\secm\desktop\data\lmxlm2\+12 2319-1\26-09-2024 - lamp inside cage\region 2\+12 2319-1 fto cv_cells_light_surface_20_2.csv
Data Source:  Experiment
Instrument Model:  CHI920C
Ref. Electrode:
Header:
Note:

Init E (V) = -0.5
High E (V) = 0.5
Low E (V) = -0.5
Init P/N = P
Scan Rate (V/s) = 0.05
Segment = 2
Sample Interval (V) = 0.001
Quiet Time (sec) = 10
Sensitivity (A/V) = 1e-7

Results:

Channel 1:
Segment 1:

Segment 2:

Potential/V, Current/A

-0.500, -2.504e-9
-0.493, -2.171e-9
-0.486, -2.019e-9
-0.479, -1.896e-9
-0.472, -1.789e-9
-0.465, -1.692e-9
-0.458, -1.615e-9
-0.451, -1.540e-9
-0.444, -1.461e-9
-0.437, -1.391e-9
-0.430, -1.326e-9
-0.423, -1.264e-9
-0.416, -1.199e-9
-0.409, -1.139e-9
-0.402, -1.086e-9
-0.395, -1.028e-9
-0.388, -9.680e-10
-0.381, -9.169e-10
-0.374, -8.651e-10
-0.367, -8.171e-10
-0.360, -7.680e-10
-0.353, -7.184e-10
-0.346, -6.702e-10
-0.339, -6.216e-10
-0.332, -5.777e-10
-0.325, -5.327e-10
-0.318, -4.805e-10
-0.311, -4.363e-10
-0.304, -3.902e-10
-0.297, -3.481e-10
-0.290, -3.097e-10
-0.283, -2.628e-10
-0.276, -2.156e-10
-0.269, -1.763e-10
-0.262, -1.349e-10
-0.255, -9.647e-11
-0.248, -5.562e-11
-0.241, -1.020e-11
-0.234, 3.387e-11
-0.227, 7.023e-11
-0.220, 1.139e-10
-0.213, 1.511e-10
-0.206, 1.879e-10
-0.199, 2.316e-10
-0.192, 2.693e-10
-0.185, 3.103e-10
-0.178, 3.487e-10
-0.171, 3.879e-10
-0.164, 4.253e-10
-0.157, 4.711e-10
-0.150, 5.162e-10
-0.143, 5.570e-10
-0.136, 5.964e-10
-0.129, 6.392e-10
-0.122, 6.813e-10
-0.115, 7.241e-10
-0.108, 7.673e-10
-0.101, 8.132e-10
-0.094, 8.577e-10
-0.087, 9.046e-10
-0.080, 9.528e-10
-0.073, 1.002e-9
-0.066, 1.050e-9
-0.059, 1.102e-9
-0.052, 1.151e-9
-0.045, 1.207e-9
-0.038, 1.264e-9
-0.031, 1.325e-9
-0.024, 1.386e-9
-0.017, 1.454e-9
-0.010, 1.520e-9
-0.003, 1.590e-9
0.004, 1.659e-9
0.011, 1.739e-9
0.018, 1.819e-9
0.025, 1.906e-9
0.032, 1.992e-9
0.039, 2.082e-9
0.046, 2.182e-9
0.053, 2.285e-9
0.060, 2.400e-9
0.067, 2.521e-9
0.074, 2.647e-9
0.081, 2.791e-9
0.088, 2.930e-9
0.095, 3.075e-9
0.102, 3.227e-9
0.109, 3.364e-9
0.116, 3.490e-9
0.123, 3.588e-9
0.130, 3.663e-9
0.137, 3.704e-9
0.144, 3.709e-9
0.151, 3.698e-9
0.158, 3.688e-9
0.165, 3.686e-9
0.172, 3.691e-9
0.179, 3.706e-9
0.186, 3.730e-9
0.193, 3.756e-9
0.200, 3.786e-9
0.207, 3.819e-9
0.214, 3.858e-9
0.221, 3.896e-9
0.228, 3.936e-9
0.235, 3.978e-9
0.242, 4.019e-9
0.249, 4.059e-9
0.256, 4.098e-9
0.263, 4.147e-9
0.270, 4.192e-9
0.277, 4.236e-9
0.284, 4.279e-9
0.291, 4.319e-9
0.298, 4.364e-9
0.305, 4.410e-9
0.312, 4.454e-9
0.319, 4.498e-9
0.326, 4.540e-9
0.333, 4.576e-9
0.340, 4.622e-9
0.347, 4.658e-9
0.354, 4.695e-9
0.361, 4.732e-9
0.368, 4.765e-9
0.375, 4.794e-9
0.382, 4.825e-9
0.389, 4.859e-9
0.396, 4.885e-9
0.403, 4.910e-9
0.410, 4.919e-9
0.417, 4.955e-9
0.424, 4.984e-9
0.431, 5.011e-9
0.438, 5.033e-9
0.445, 5.055e-9
0.452, 5.084e-9
0.459, 5.110e-9
0.466, 5.135e-9
0.473, 5.164e-9
0.480, 5.193e-9
0.487, 5.223e-9
0.494, 5.255e-9
0.499, 4.851e-9
0.492, 4.020e-9
0.485, 3.610e-9
0.478, 3.320e-9
0.471, 3.088e-9
0.464, 2.902e-9
0.457, 2.737e-9
0.450, 2.584e-9
0.443, 2.451e-9
0.436, 2.324e-9
0.429, 2.206e-9
0.422, 2.096e-9
0.415, 1.988e-9
0.408, 1.893e-9
0.401, 1.785e-9
0.394, 1.689e-9
0.387, 1.595e-9
0.380, 1.507e-9
0.373, 1.421e-9
0.366, 1.334e-9
0.359, 1.251e-9
0.352, 1.168e-9
0.345, 1.094e-9
0.338, 1.020e-9
0.331, 9.510e-10
0.324, 8.760e-10
0.317, 8.069e-10
0.310, 7.424e-10
0.303, 6.741e-10
0.296, 6.137e-10
0.289, 5.549e-10
0.282, 4.930e-10
0.275, 4.279e-10
0.268, 3.737e-10
0.261, 3.222e-10
0.254, 2.680e-10
0.247, 2.130e-10
0.240, 1.608e-10
0.233, 1.147e-10
0.226, 6.408e-11
0.219, 1.310e-11
0.212, -4.217e-11
0.205, -8.935e-11
0.198, -1.409e-10
0.191, -1.895e-10
0.184, -2.425e-10
0.177, -2.957e-10
0.170, -3.472e-10
0.163, -3.973e-10
0.156, -4.504e-10
0.149, -5.058e-10
0.142, -5.658e-10
0.135, -6.208e-10
0.128, -6.749e-10
0.121, -7.313e-10
0.114, -7.927e-10
0.107, -8.460e-10
0.100, -9.089e-10
0.093, -9.657e-10
0.086, -1.031e-9
0.079, -1.093e-9
0.072, -1.154e-9
0.065, -1.215e-9
0.058, -1.279e-9
0.051, -1.335e-9
0.044, -1.396e-9
0.037, -1.456e-9
0.030, -1.521e-9
0.023, -1.577e-9
0.016, -1.633e-9
0.009, -1.687e-9
0.002, -1.746e-9
-0.005, -1.797e-9
-0.012, -1.853e-9
-0.019, -1.906e-9
-0.026, -1.956e-9
-0.033, -2.008e-9
-0.040, -2.056e-9
-0.047, -2.104e-9
-0.054, -2.149e-9
-0.061, -2.191e-9
-0.068, -2.239e-9
-0.075, -2.280e-9
-0.082, -2.318e-9
-0.089, -2.360e-9
-0.096, -2.394e-9
-0.103, -2.435e-9
-0.110, -2.468e-9
-0.117, -2.502e-9
-0.124, -2.532e-9
-0.131, -2.561e-9
-0.138, -2.592e-9
-0.145, -2.618e-9
-0.152, -2.645e-9
-0.159, -2.672e-9
-0.166, -2.696e-9
-0.173, -2.724e-9
-0.180, -2.748e-9
-0.187, -2.770e-9
-0.194, -2.794e-9
-0.201, -2.820e-9
-0.208, -2.843e-9
-0.215, -2.869e-9
-0.222, -2.893e-9
-0.229, -2.915e-9
-0.236, -2.940e-9
-0.243, -2.966e-9
-0.250, -2.992e-9
-0.257, -3.017e-9
-0.264, -3.044e-9
-0.271, -3.070e-9
-0.278, -3.096e-9
-0.285, -3.124e-9
-0.292, -3.150e-9
-0.299, -3.179e-9
-0.306, -3.210e-9
-0.313, -3.243e-9
-0.320, -3.269e-9
-0.327, -3.300e-9
-0.334, -3.334e-9
-0.341, -3.366e-9
-0.348, -3.397e-9
-0.355, -3.429e-9
-0.362, -3.462e-9
-0.369, -3.493e-9
-0.376, -3.524e-9
-0.383, -3.557e-9
-0.390, -3.591e-9
-0.397, -3.630e-9
-0.404, -3.668e-9
-0.411, -3.711e-9
-0.418, -3.746e-9
-0.425, -3.780e-9
-0.432, -3.819e-9
-0.439, -3.859e-9
-0.446, -3.901e-9
-0.453, -3.945e-9
-0.460, -3.987e-9
-0.467, -4.027e-9
-0.474, -4.073e-9
-0.481, -4.120e-9
-0.488, -4.168e-9
-0.495, -4.217e-9
-0.499, -4.242e-9

File: CV_surface_light_3.csv
Sept. 26, 2024   14:49:12
Cyclic Voltammetry
File: c:\users\secm\desktop\data\lmxlm2\+12 2319-1\26-09-2024 - lamp inside cage\region 2\+12 2319-1 fto cv_cells_light_surface_20_3.csv
Data Source:  Experiment
Instrument Model:  CHI920C
Ref. Electrode:
Header:
Note:

Init E (V) = -0.5
High E (V) = 0.5
Low E (V) = -0.5
Init P/N = P
Scan Rate (V/s) = 0.05
Segment = 2
Sample Interval (V) = 0.001
Quiet Time (sec) = 10
Sensitivity (A/V) = 1e-7

Results:

Channel 1:
Segment 1:
Ep = 0.137V
ip = 1.701e-9A
Ah = 2.529e-9C

Segment 2:

Potential/V, Current/A

-0.500, -2.173e-9
-0.493, -1.849e-9
-0.486, -1.700e-9
-0.479, -1.588e-9
-0.472, -1.485e-9
-0.465, -1.394e-9
-0.458, -1.314e-9
-0.451, -1.236e-9
-0.444, -1.164e-9
-0.437, -1.097e-9
-0.430, -1.036e-9
-0.423, -9.669e-10
-0.416, -9.101e-10
-0.409, -8.527e-10
-0.402, -8.006e-10
-0.395, -7.449e-10
-0.388, -6.909e-10
-0.381, -6.396e-10
-0.374, -5.923e-10
-0.367, -5.419e-10
-0.360, -4.880e-10
-0.353, -4.406e-10
-0.346, -3.926e-10
-0.339, -3.487e-10
-0.332, -3.087e-10
-0.325, -2.576e-10
-0.318, -2.117e-10
-0.311, -1.670e-10
-0.304, -1.242e-10
-0.297, -8.380e-11
-0.290, -3.983e-11
-0.283, 5.498e-12
-0.276, 4.615e-11
-0.269, 8.738e-11
-0.262, 1.269e-10
-0.255, 1.617e-10
-0.248, 2.007e-10
-0.241, 2.439e-10
-0.234, 2.832e-10
-0.227, 3.183e-10
-0.220, 3.573e-10
-0.213, 3.936e-10
-0.206, 4.313e-10
-0.199, 4.738e-10
-0.192, 5.150e-10
-0.185, 5.518e-10
-0.178, 5.909e-10
-0.171, 6.268e-10
-0.164, 6.623e-10
-0.157, 7.005e-10
-0.150, 7.375e-10
-0.143, 7.754e-10
-0.136, 8.114e-10
-0.129, 8.500e-10
-0.122, 8.917e-10
-0.115, 9.298e-10
-0.108, 9.712e-10
-0.101, 1.016e-9
-0.094, 1.055e-9
-0.087, 1.098e-9
-0.080, 1.139e-9
-0.073, 1.186e-9
-0.066, 1.236e-9
-0.059, 1.283e-9
-0.052, 1.338e-9
-0.045, 1.392e-9
-0.038, 1.449e-9
-0.031, 1.508e-9
-0.024, 1.565e-9
-0.017, 1.630e-9
-0.010, 1.699e-9
-0.003, 1.767e-9
0.004, 1.842e-9
0.011, 1.922e-9
0.018, 2.005e-9
0.025, 2.089e-9
0.032, 2.180e-9
0.039, 2.276e-9
0.046, 2.384e-9
0.053, 2.494e-9
0.060, 2.612e-9
0.067, 2.751e-9
0.074, 2.893e-9
0.081, 3.047e-9
0.088, 3.214e-9
0.095, 3.379e-9
0.102, 3.555e-9
0.109, 3.723e-9
0.116, 3.872e-9
0.123, 3.993e-9
0.130, 4.075e-9
0.137, 4.115e-9
0.144, 4.080e-9
0.151, 4.015e-9
0.158, 3.958e-9
0.165, 3.924e-9
0.172, 3.913e-9
0.179, 3.915e-9
0.186, 3.932e-9
0.193, 3.955e-9
0.200, 3.986e-9
0.207, 4.018e-9
0.214, 4.055e-9
0.221, 4.092e-9
0.228, 4.139e-9
0.235, 4.182e-9
0.242, 4.226e-9
0.249, 4.269e-9
0.256, 4.310e-9
0.263, 4.354e-9
0.270, 4.402e-9
0.277, 4.446e-9
0.284, 4.491e-9
0.291, 4.538e-9
0.298, 4.578e-9
0.305, 4.628e-9
0.312, 4.672e-9
0.319, 4.716e-9
0.326, 4.759e-9
0.333, 4.798e-9
0.340, 4.841e-9
0.347, 4.878e-9
0.354, 4.916e-9
0.361, 4.952e-9
0.368, 4.986e-9
0.375, 5.019e-9
0.382, 5.049e-9
0.389, 5.082e-9
0.396, 5.113e-9
0.403, 5.142e-9
0.410, 5.151e-9
0.417, 5.189e-9
0.424, 5.218e-9
0.431, 5.245e-9
0.438, 5.270e-9
0.445, 5.292e-9
0.452, 5.323e-9
0.459, 5.352e-9
0.466, 5.380e-9
0.473, 5.407e-9
0.480, 5.439e-9
0.487, 5.468e-9
0.494, 5.505e-9
0.499, 5.086e-9
0.492, 4.230e-9
0.485, 3.814e-9
0.478, 3.518e-9
0.471, 3.287e-9
0.464, 3.087e-9
0.457, 2.923e-9
0.450, 2.775e-9
0.443, 2.627e-9
0.436, 2.506e-9
0.429, 2.386e-9
0.422, 2.271e-9
0.415, 2.160e-9
0.408, 2.064e-9
0.401, 1.959e-9
0.394, 1.860e-9
0.387, 1.762e-9
0.380, 1.669e-9
0.373, 1.580e-9
0.366, 1.492e-9
0.359, 1.408e-9
0.352, 1.323e-9
0.345, 1.244e-9
0.338, 1.161e-9
0.331, 1.090e-9
0.324, 1.019e-9
0.317, 9.500e-10
0.310, 8.778e-10
0.303, 8.072e-10
0.296, 7.432e-10
0.289, 6.790e-10
0.282, 6.203e-10
0.275, 5.609e-10
0.268, 5.017e-10
0.261, 4.356e-10
0.254, 3.821e-10
0.247, 3.268e-10
0.240, 2.743e-10
0.233, 2.186e-10
0.226, 1.654e-10
0.219, 1.177e-10
0.212, 6.720e-11
0.205, 1.837e-11
0.198, -3.837e-11
0.191, -9.023e-11
0.184, -1.429e-10
0.177, -1.938e-10
0.170, -2.480e-10
0.163, -3.039e-10
0.156, -3.542e-10
0.149, -4.086e-10
0.142, -4.632e-10
0.135, -5.240e-10
0.128, -5.813e-10
0.121, -6.376e-10
0.114, -6.966e-10
0.107, -7.545e-10
0.100, -8.163e-10
0.093, -8.735e-10
0.086, -9.346e-10
0.079, -9.980e-10
0.072, -1.061e-9
0.065, -1.121e-9
0.058, -1.182e-9
0.051, -1.246e-9
0.044, -1.309e-9
0.037, -1.365e-9
0.030, -1.425e-9
0.023, -1.488e-9
0.016, -1.547e-9
0.009, -1.600e-9
0.002, -1.656e-9
-0.005, -1.707e-9
-0.012, -1.765e-9
-0.019, -1.814e-9
-0.026, -1.867e-9
-0.033, -1.917e-9
-0.040, -1.964e-9
-0.047, -2.011e-9
-0.054, -2.056e-9
-0.061, -2.100e-9
-0.068, -2.142e-9
-0.075, -2.178e-9
-0.082, -2.219e-9
-0.089, -2.258e-9
-0.096, -2.293e-9
-0.103, -2.333e-9
-0.110, -2.364e-9
-0.117, -2.394e-9
-0.124, -2.424e-9
-0.131, -2.452e-9
-0.138, -2.482e-9
-0.145, -2.510e-9
-0.152, -2.535e-9
-0.159, -2.558e-9
-0.166, -2.582e-9
-0.173, -2.607e-9
-0.180, -2.631e-9
-0.187, -2.653e-9
-0.194, -2.674e-9
-0.201, -2.699e-9
-0.208, -2.723e-9
-0.215, -2.748e-9
-0.222, -2.770e-9
-0.229, -2.795e-9
-0.236, -2.820e-9
-0.243, -2.846e-9
-0.250, -2.874e-9
-0.257, -2.895e-9
-0.264, -2.921e-9
-0.271, -2.948e-9
-0.278, -2.976e-9
-0.285, -3.002e-9
-0.292, -3.030e-9
-0.299, -3.060e-9
-0.306, -3.089e-9
-0.313, -3.120e-9
-0.320, -3.148e-9
-0.327, -3.187e-9
-0.334, -3.208e-9
-0.341, -3.240e-9
-0.348, -3.269e-9
-0.355, -3.300e-9
-0.362, -3.336e-9
-0.369, -3.369e-9
-0.376, -3.399e-9
-0.383, -3.437e-9
-0.390, -3.468e-9
-0.397, -3.498e-9
-0.404, -3.529e-9
-0.411, -3.566e-9
-0.418, -3.602e-9
-0.425, -3.641e-9
-0.432, -3.682e-9
-0.439, -3.721e-9
-0.446, -3.754e-9
-0.453, -3.791e-9
-0.460, -3.833e-9
-0.467, -3.874e-9
-0.474, -3.914e-9
-0.481, -3.961e-9
-0.488, -4.001e-9
-0.495, -4.046e-9
-0.499, -4.072e-9

File: CV_surface_light_4.csv
Sept. 26, 2024   14:50:19
Cyclic Voltammetry
File: c:\users\secm\desktop\data\lmxlm2\+12 2319-1\26-09-2024 - lamp inside cage\region 2\+12 2319-1 fto cv_cells_light_surface_20_4.csv
Data Source:  Experiment
Instrument Model:  CHI920C
Ref. Electrode:
Header:
Note:

Init E (V) = -0.5
High E (V) = 0.5
Low E (V) = -0.5
Init P/N = P
Scan Rate (V/s) = 0.05
Segment = 2
Sample Interval (V) = 0.001
Quiet Time (sec) = 10
Sensitivity (A/V) = 1e-7

Results:

Channel 1:
Segment 1:
Ep = 0.135V
ip = 2.435e-9A
Ah = 3.037e-9C

Segment 2:

Potential/V, Current/A

-0.500, -2.039e-9
-0.493, -1.716e-9
-0.486, -1.577e-9
-0.479, -1.453e-9
-0.472, -1.358e-9
-0.465, -1.272e-9
-0.458, -1.188e-9
-0.451, -1.111e-9
-0.444, -1.045e-9
-0.437, -9.720e-10
-0.430, -9.098e-10
-0.423, -8.503e-10
-0.416, -7.967e-10
-0.409, -7.364e-10
-0.402, -6.807e-10
-0.395, -6.275e-10
-0.388, -5.773e-10
-0.381, -5.253e-10
-0.374, -4.694e-10
-0.367, -4.222e-10
-0.360, -3.737e-10
-0.353, -3.301e-10
-0.346, -2.829e-10
-0.339, -2.320e-10
-0.332, -1.875e-10
-0.325, -1.427e-10
-0.318, -1.010e-10
-0.311, -5.806e-11
-0.304, -1.137e-11
-0.297, 3.289e-11
-0.290, 7.529e-11
-0.283, 1.156e-10
-0.276, 1.528e-10
-0.269, 1.913e-10
-0.262, 2.335e-10
-0.255, 2.721e-10
-0.248, 3.130e-10
-0.241, 3.509e-10
-0.234, 3.875e-10
-0.227, 4.226e-10
-0.220, 4.648e-10
-0.213, 5.061e-10
-0.206, 5.457e-10
-0.199, 5.817e-10
-0.192, 6.176e-10
-0.185, 6.532e-10
-0.178, 6.875e-10
-0.171, 7.273e-10
-0.164, 7.624e-10
-0.157, 7.980e-10
-0.150, 8.327e-10
-0.143, 8.717e-10
-0.136, 9.083e-10
-0.129, 9.473e-10
-0.122, 9.850e-10
-0.115, 1.023e-9
-0.108, 1.060e-9
-0.101, 1.104e-9
-0.094, 1.141e-9
-0.087, 1.181e-9
-0.080, 1.226e-9
-0.073, 1.270e-9
-0.066, 1.320e-9
-0.059, 1.370e-9
-0.052, 1.424e-9
-0.045, 1.478e-9
-0.038, 1.530e-9
-0.031, 1.590e-9
-0.024, 1.649e-9
-0.017, 1.718e-9
-0.010, 1.783e-9
-0.003, 1.858e-9
0.004, 1.935e-9
0.011, 2.012e-9
0.018, 2.095e-9
0.025, 2.189e-9
0.032, 2.281e-9
0.039, 2.384e-9
0.046, 2.494e-9
0.053, 2.611e-9
0.060, 2.750e-9
0.067, 2.889e-9
0.074, 3.044e-9
0.081, 3.216e-9
0.088, 3.403e-9
0.095, 3.594e-9
0.102, 3.809e-9
0.109, 4.045e-9
0.116, 4.292e-9
0.123, 4.559e-9
0.130, 4.773e-9
0.137, 4.829e-9
0.144, 4.610e-9
0.151, 4.338e-9
0.158, 4.189e-9
0.165, 4.100e-9
0.172, 4.064e-9
0.179, 4.052e-9
0.186, 4.058e-9
0.193, 4.074e-9
0.200, 4.102e-9
0.207, 4.132e-9
0.214, 4.170e-9
0.221, 4.209e-9
0.228, 4.251e-9
0.235, 4.289e-9
0.242, 4.326e-9
0.249, 4.374e-9
0.256, 4.414e-9
0.263, 4.461e-9
0.270, 4.504e-9
0.277, 4.550e-9
0.284, 4.595e-9
0.291, 4.640e-9
0.298, 4.683e-9
0.305, 4.726e-9
0.312, 4.771e-9
0.319, 4.813e-9
0.326, 4.857e-9
0.333, 4.893e-9
0.340, 4.935e-9
0.347, 4.973e-9
0.354, 5.013e-9
0.361, 5.045e-9
0.368, 5.079e-9
0.375, 5.114e-9
0.382, 5.145e-9
0.389, 5.174e-9
0.396, 5.207e-9
0.403, 5.229e-9
0.410, 5.240e-9
0.417, 5.280e-9
0.424, 5.305e-9
0.431, 5.336e-9
0.438, 5.362e-9
0.445, 5.387e-9
0.452, 5.414e-9
0.459, 5.441e-9
0.466, 5.472e-9
0.473, 5.500e-9
0.480, 5.531e-9
0.487, 5.563e-9
0.494, 5.603e-9
0.499, 5.172e-9
0.492, 4.300e-9
0.485, 3.880e-9
0.478, 3.580e-9
0.471, 3.346e-9
0.464, 3.152e-9
0.457, 2.983e-9
0.450, 2.833e-9
0.443, 2.694e-9
0.436, 2.563e-9
0.429, 2.443e-9
0.422, 2.330e-9
0.415, 2.218e-9
0.408, 2.115e-9
0.401, 2.014e-9
0.394, 1.912e-9
0.387, 1.815e-9
0.380, 1.719e-9
0.373, 1.627e-9
0.366, 1.539e-9
0.359, 1.454e-9
0.352, 1.367e-9
0.345, 1.285e-9
0.338, 1.202e-9
0.331, 1.123e-9
0.324, 1.051e-9
0.317, 9.828e-10
0.310, 9.098e-10
0.303, 8.351e-10
0.296, 7.693e-10
0.289, 7.050e-10
0.282, 6.422e-10
0.275, 5.804e-10
0.268, 5.211e-10
0.261, 4.548e-10
0.254, 3.945e-10
0.247, 3.410e-10
0.240, 2.875e-10
0.233, 2.316e-10
0.226, 1.744e-10
0.219, 1.281e-10
0.212, 7.520e-11
0.205, 2.772e-11
0.198, -2.999e-11
0.191, -8.165e-11
0.184, -1.324e-10
0.177, -1.835e-10
0.170, -2.367e-10
0.163, -2.946e-10
0.156, -3.442e-10
0.149, -3.976e-10
0.142, -4.536e-10
0.135, -5.131e-10
0.128, -5.716e-10
0.121, -6.279e-10
0.114, -6.865e-10
0.107, -7.448e-10
0.100, -8.095e-10
0.093, -8.653e-10
0.086, -9.265e-10
0.079, -9.900e-10
0.072, -1.056e-9
0.065, -1.118e-9
0.058, -1.180e-9
0.051, -1.244e-9
0.044, -1.310e-9
0.037, -1.371e-9
0.030, -1.432e-9
0.023, -1.497e-9
0.016, -1.560e-9
0.009, -1.617e-9
0.002, -1.673e-9
-0.005, -1.728e-9
-0.012, -1.785e-9
-0.019, -1.841e-9
-0.026, -1.890e-9
-0.033, -1.940e-9
-0.040, -1.989e-9
-0.047, -2.035e-9
-0.054, -2.076e-9
-0.061, -2.120e-9
-0.068, -2.160e-9
-0.075, -2.195e-9
-0.082, -2.235e-9
-0.089, -2.284e-9
-0.096, -2.302e-9
-0.103, -2.341e-9
-0.110, -2.371e-9
-0.117, -2.394e-9
-0.124, -2.423e-9
-0.131, -2.448e-9
-0.138, -2.473e-9
-0.145, -2.498e-9
-0.152, -2.521e-9
-0.159, -2.544e-9
-0.166, -2.570e-9
-0.173, -2.588e-9
-0.180, -2.609e-9
-0.187, -2.635e-9
-0.194, -2.651e-9
-0.201, -2.675e-9
-0.208, -2.693e-9
-0.215, -2.718e-9
-0.222, -2.742e-9
-0.229, -2.764e-9
-0.236, -2.784e-9
-0.243, -2.809e-9
-0.250, -2.833e-9
-0.257, -2.858e-9
-0.264, -2.884e-9
-0.271, -2.909e-9
-0.278, -2.935e-9
-0.285, -2.958e-9
-0.292, -2.987e-9
-0.299, -3.013e-9
-0.306, -3.041e-9
-0.313, -3.069e-9
-0.320, -3.102e-9
-0.327, -3.127e-9
-0.334, -3.155e-9
-0.341, -3.186e-9
-0.348, -3.219e-9
-0.355, -3.248e-9
-0.362, -3.278e-9
-0.369, -3.308e-9
-0.376, -3.345e-9
-0.383, -3.376e-9
-0.390, -3.408e-9
-0.397, -3.438e-9
-0.404, -3.473e-9
-0.411, -3.502e-9
-0.418, -3.534e-9
-0.425, -3.568e-9
-0.432, -3.603e-9
-0.439, -3.641e-9
-0.446, -3.683e-9
-0.453, -3.721e-9
-0.460, -3.754e-9
-0.467, -3.792e-9
-0.474, -3.828e-9
-0.481, -3.873e-9
-0.488, -3.914e-9
-0.495, -3.958e-9
-0.499, -3.981e-9