Folder: Bioelectricity-generation-by-Symbiodinium-microadriaticum/Fig 4/Fig 3c CV surface dark (part 2)

File: CV_surface_dark_5.txt
Nov. 20, 2024   15:52:17
Cyclic Voltammetry
File: +12 2319-1 fto cv_cells_dark_surface_5.bin
Data Source:  Experiment
Instrument Model:  CHI920C
Ref. Electrode:
Header:
Note:

Init E (V) = -0.5
High E (V) = 0.5
Low E (V) = -0.5
Init P/N = P
Scan Rate (V/s) = 0.05
Segment = 2
Sample Interval (V) = 0.001
Quiet Time (sec) = 10
Sensitivity (A/V) = 1e-7

Results:

Channel 1:
Segment 1:
Ep = 0.125V
ip = 1.908e-9A
Ah = 5.166e-10C

Segment 2:

Potential/V, Current/A

-0.500, -1.450e-9
-0.493, -1.186e-9
-0.486, -1.074e-9
-0.479, -9.813e-10
-0.472, -9.081e-10
-0.465, -8.442e-10
-0.458, -7.911e-10
-0.451, -7.309e-10
-0.444, -6.801e-10
-0.437, -6.284e-10
-0.430, -5.842e-10
-0.423, -5.370e-10
-0.416, -4.844e-10
-0.409, -4.381e-10
-0.402, -3.955e-10
-0.395, -3.534e-10
-0.388, -3.155e-10
-0.381, -2.696e-10
-0.374, -2.237e-10
-0.367, -1.823e-10
-0.360, -1.427e-10
-0.353, -1.021e-10
-0.346, -6.508e-11
-0.339, -1.955e-11
-0.332, 1.973e-11
-0.325, 5.960e-11
-0.318, 9.869e-11
-0.311, 1.378e-10
-0.304, 1.742e-10
-0.297, 2.178e-10
-0.290, 2.591e-10
-0.283, 2.969e-10
-0.276, 3.380e-10
-0.269, 3.772e-10
-0.262, 4.151e-10
-0.255, 4.610e-10
-0.248, 5.067e-10
-0.241, 5.480e-10
-0.234, 5.903e-10
-0.227, 6.297e-10
-0.220, 6.698e-10
-0.213, 7.133e-10
-0.206, 7.544e-10
-0.199, 7.932e-10
-0.192, 8.367e-10
-0.185, 8.807e-10
-0.178, 9.201e-10
-0.171, 9.635e-10
-0.164, 1.004e-9
-0.157, 1.044e-9
-0.150, 1.085e-9
-0.143, 1.122e-9
-0.136, 1.163e-9
-0.129, 1.205e-9
-0.122, 1.246e-9
-0.115, 1.286e-9
-0.108, 1.329e-9
-0.101, 1.373e-9
-0.094, 1.413e-9
-0.087, 1.455e-9
-0.080, 1.493e-9
-0.073, 1.531e-9
-0.066, 1.571e-9
-0.059, 1.609e-9
-0.052, 1.648e-9
-0.045, 1.690e-9
-0.038, 1.732e-9
-0.031, 1.772e-9
-0.024, 1.811e-9
-0.017, 1.854e-9
-0.010, 1.893e-9
-0.003, 1.939e-9
0.004, 1.977e-9
0.011, 2.019e-9
0.018, 2.061e-9
0.025, 2.102e-9
0.032, 2.142e-9
0.039, 2.190e-9
0.046, 2.234e-9
0.053, 2.275e-9
0.060, 2.322e-9
0.067, 2.368e-9
0.074, 2.417e-9
0.081, 2.466e-9
0.088, 2.517e-9
0.095, 2.568e-9
0.102, 2.635e-9
0.109, 2.827e-9
0.116, 3.472e-9
0.123, 4.409e-9
0.130, 4.277e-9
0.137, 3.694e-9
0.144, 3.169e-9
0.151, 2.970e-9
0.158, 2.925e-9
0.165, 2.927e-9
0.172, 2.940e-9
0.179, 2.959e-9
0.186, 2.982e-9
0.193, 2.998e-9
0.200, 3.020e-9
0.207, 3.037e-9
0.214, 3.058e-9
0.221, 3.076e-9
0.228, 3.093e-9
0.235, 3.112e-9
0.242, 3.132e-9
0.249, 3.153e-9
0.256, 3.173e-9
0.263, 3.193e-9
0.270, 3.214e-9
0.277, 3.237e-9
0.284, 3.260e-9
0.291, 3.280e-9
0.298, 3.302e-9
0.305, 3.327e-9
0.312, 3.352e-9
0.319, 3.379e-9
0.326, 3.408e-9
0.333, 3.438e-9
0.340, 3.466e-9
0.347, 3.497e-9
0.354, 3.530e-9
0.361, 3.558e-9
0.368, 3.588e-9
0.375, 3.624e-9
0.382, 3.662e-9
0.389, 3.699e-9
0.396, 3.738e-9
0.403, 3.774e-9
0.410, 3.803e-9
0.417, 3.844e-9
0.424, 3.887e-9
0.431, 3.930e-9
0.438, 3.973e-9
0.445, 4.016e-9
0.452, 4.061e-9
0.459, 4.101e-9
0.466, 4.150e-9
0.473, 4.202e-9
0.480, 4.250e-9
0.487, 4.297e-9
0.494, 4.347e-9
0.499, 4.210e-9
0.492, 3.714e-9
0.485, 3.412e-9
0.478, 3.175e-9
0.471, 2.972e-9
0.464, 2.802e-9
0.457, 2.641e-9
0.450, 2.503e-9
0.443, 2.373e-9
0.436, 2.251e-9
0.429, 2.135e-9
0.422, 2.037e-9
0.415, 1.937e-9
0.408, 1.842e-9
0.401, 1.748e-9
0.394, 1.658e-9
0.387, 1.577e-9
0.380, 1.496e-9
0.373, 1.415e-9
0.366, 1.337e-9
0.359, 1.264e-9
0.352, 1.191e-9
0.345, 1.121e-9
0.338, 1.054e-9
0.331, 9.889e-10
0.324, 9.228e-10
0.317, 8.583e-10
0.310, 7.934e-10
0.303, 7.324e-10
0.296, 6.691e-10
0.289, 6.127e-10
0.282, 5.537e-10
0.275, 4.942e-10
0.268, 4.303e-10
0.261, 3.764e-10
0.254, 3.217e-10
0.247, 2.687e-10
0.240, 2.102e-10
0.233, 1.570e-10
0.226, 1.067e-10
0.219, 5.297e-11
0.212, 4.289e-13
0.205, -5.884e-11
0.198, -1.113e-10
0.191, -1.644e-10
0.184, -2.200e-10
0.177, -2.823e-10
0.170, -3.371e-10
0.163, -3.921e-10
0.156, -4.508e-10
0.149, -5.129e-10
0.142, -5.790e-10
0.135, -6.401e-10
0.128, -7.032e-10
0.121, -7.725e-10
0.114, -8.364e-10
0.107, -9.013e-10
0.100, -9.745e-10
0.093, -1.050e-9
0.086, -1.116e-9
0.079, -1.190e-9
0.072, -1.267e-9
0.065, -1.334e-9
0.058, -1.407e-9
0.051, -1.477e-9
0.044, -1.553e-9
0.037, -1.616e-9
0.030, -1.681e-9
0.023, -1.747e-9
0.016, -1.808e-9
0.009, -1.866e-9
0.002, -1.925e-9
-0.005, -1.978e-9
-0.012, -2.032e-9
-0.019, -2.084e-9
-0.026, -2.144e-9
-0.033, -2.240e-9
-0.040, -2.347e-9
-0.047, -2.456e-9
-0.054, -2.567e-9
-0.061, -2.636e-9
-0.068, -2.579e-9
-0.075, -2.508e-9
-0.082, -2.461e-9
-0.089, -2.464e-9
-0.096, -2.442e-9
-0.103, -2.473e-9
-0.110, -2.480e-9
-0.117, -2.490e-9
-0.124, -2.511e-9
-0.131, -2.525e-9
-0.138, -2.542e-9
-0.145, -2.565e-9
-0.152, -2.585e-9
-0.159, -2.630e-9
-0.166, -2.625e-9
-0.173, -2.642e-9
-0.180, -2.662e-9
-0.187, -2.688e-9
-0.194, -2.702e-9
-0.201, -2.726e-9
-0.208, -2.743e-9
-0.215, -2.764e-9
-0.222, -2.783e-9
-0.229, -2.802e-9
-0.236, -2.823e-9
-0.243, -2.846e-9
-0.250, -2.865e-9
-0.257, -2.885e-9
-0.264, -2.903e-9
-0.271, -2.920e-9
-0.278, -2.937e-9
-0.285, -2.954e-9
-0.292, -2.973e-9
-0.299, -2.990e-9
-0.306, -3.004e-9
-0.313, -3.018e-9
-0.320, -3.031e-9
-0.327, -3.045e-9
-0.334, -3.056e-9
-0.341, -3.071e-9
-0.348, -3.081e-9
-0.355, -3.094e-9
-0.362, -3.105e-9
-0.369, -3.115e-9
-0.376, -3.128e-9
-0.383, -3.138e-9
-0.390, -3.150e-9
-0.397, -3.161e-9
-0.404, -3.173e-9
-0.411, -3.185e-9
-0.418, -3.197e-9
-0.425, -3.212e-9
-0.432, -3.224e-9
-0.439, -3.238e-9
-0.446, -3.253e-9
-0.453, -3.266e-9
-0.460, -3.280e-9
-0.467, -3.296e-9
-0.474, -3.312e-9
-0.481, -3.332e-9
-0.488, -3.349e-9
-0.495, -3.366e-9
-0.499, -3.376e-9

File: CV_surface_dark_6.txt
Nov. 20, 2024   15:53:22
Cyclic Voltammetry
File: +12 2319-1 fto cv_cells_dark_surface_6.bin
Data Source:  Experiment
Instrument Model:  CHI920C
Ref. Electrode:
Header:
Note:

Init E (V) = -0.5
High E (V) = 0.5
Low E (V) = -0.5
Init P/N = P
Scan Rate (V/s) = 0.05
Segment = 2
Sample Interval (V) = 0.001
Quiet Time (sec) = 10
Sensitivity (A/V) = 1e-7

Results:

Channel 1:
Segment 1:
Ep = 0.123V
ip = 2.121e-9A
Ah = 5.303e-10C

Segment 2:

Potential/V, Current/A

-0.500, -1.373e-9
-0.493, -1.109e-9
-0.486, -9.918e-10
-0.479, -9.029e-10
-0.472, -8.324e-10
-0.465, -7.715e-10
-0.458, -7.092e-10
-0.451, -6.554e-10
-0.444, -6.033e-10
-0.437, -5.565e-10
-0.430, -5.029e-10
-0.423, -4.535e-10
-0.416, -4.083e-10
-0.409, -3.641e-10
-0.402, -3.233e-10
-0.395, -2.815e-10
-0.388, -2.321e-10
-0.381, -1.906e-10
-0.374, -1.520e-10
-0.367, -1.118e-10
-0.360, -7.317e-11
-0.353, -2.921e-11
-0.346, 1.320e-11
-0.339, 5.219e-11
-0.332, 9.177e-11
-0.325, 1.311e-10
-0.318, 1.663e-10
-0.311, 2.063e-10
-0.304, 2.505e-10
-0.297, 2.891e-10
-0.290, 3.279e-10
-0.283, 3.676e-10
-0.276, 4.041e-10
-0.269, 4.444e-10
-0.262, 4.939e-10
-0.255, 5.340e-10
-0.248, 5.767e-10
-0.241, 6.162e-10
-0.234, 6.555e-10
-0.227, 6.959e-10
-0.220, 7.382e-10
-0.213, 7.793e-10
-0.206, 8.191e-10
-0.199, 8.611e-10
-0.192, 9.027e-10
-0.185, 9.470e-10
-0.178, 9.880e-10
-0.171, 1.027e-9
-0.164, 1.068e-9
-0.157, 1.108e-9
-0.150, 1.148e-9
-0.143, 1.189e-9
-0.136, 1.231e-9
-0.129, 1.272e-9
-0.122, 1.312e-9
-0.115, 1.353e-9
-0.108, 1.397e-9
-0.101, 1.443e-9
-0.094, 1.482e-9
-0.087, 1.519e-9
-0.080, 1.561e-9
-0.073, 1.599e-9
-0.066, 1.637e-9
-0.059, 1.679e-9
-0.052, 1.723e-9
-0.045, 1.762e-9
-0.038, 1.802e-9
-0.031, 1.844e-9
-0.024, 1.882e-9
-0.017, 1.927e-9
-0.010, 1.968e-9
-0.003, 2.009e-9
0.004, 2.047e-9
0.011, 2.088e-9
0.018, 2.127e-9
0.025, 2.175e-9
0.032, 2.220e-9
0.039, 2.261e-9
0.046, 2.307e-9
0.053, 2.353e-9
0.060, 2.397e-9
0.067, 2.442e-9
0.074, 2.491e-9
0.081, 2.540e-9
0.088, 2.589e-9
0.095, 2.644e-9
0.102, 2.734e-9
0.109, 3.011e-9
0.116, 3.947e-9
0.123, 4.820e-9
0.130, 4.300e-9
0.137, 3.544e-9
0.144, 3.104e-9
0.151, 3.007e-9
0.158, 2.991e-9
0.165, 3.000e-9
0.172, 3.017e-9
0.179, 3.033e-9
0.186, 3.053e-9
0.193, 3.071e-9
0.200, 3.091e-9
0.207, 3.106e-9
0.214, 3.127e-9
0.221, 3.149e-9
0.228, 3.169e-9
0.235, 3.189e-9
0.242, 3.206e-9
0.249, 3.227e-9
0.256, 3.245e-9
0.263, 3.264e-9
0.270, 3.283e-9
0.277, 3.301e-9
0.284, 3.322e-9
0.291, 3.342e-9
0.298, 3.365e-9
0.305, 3.391e-9
0.312, 3.419e-9
0.319, 3.445e-9
0.326, 3.473e-9
0.333, 3.500e-9
0.340, 3.529e-9
0.347, 3.557e-9
0.354, 3.585e-9
0.361, 3.619e-9
0.368, 3.656e-9
0.375, 3.692e-9
0.382, 3.727e-9
0.389, 3.765e-9
0.396, 3.800e-9
0.403, 3.835e-9
0.410, 3.868e-9
0.417, 3.912e-9
0.424, 3.953e-9
0.431, 3.997e-9
0.438, 4.040e-9
0.445, 4.078e-9
0.452, 4.126e-9
0.459, 4.180e-9
0.466, 4.224e-9
0.473, 4.271e-9
0.480, 4.316e-9
0.487, 4.367e-9
0.494, 4.424e-9
0.499, 4.281e-9
0.492, 3.781e-9
0.485, 3.479e-9
0.478, 3.240e-9
0.471, 3.035e-9
0.464, 2.860e-9
0.457, 2.705e-9
0.450, 2.558e-9
0.443, 2.430e-9
0.436, 2.307e-9
0.429, 2.195e-9
0.422, 2.088e-9
0.415, 1.988e-9
0.408, 1.894e-9
0.401, 1.798e-9
0.394, 1.711e-9
0.387, 1.623e-9
0.380, 1.544e-9
0.373, 1.466e-9
0.366, 1.385e-9
0.359, 1.310e-9
0.352, 1.237e-9
0.345, 1.162e-9
0.338, 1.098e-9
0.331, 1.030e-9
0.324, 9.673e-10
0.317, 8.993e-10
0.310, 8.373e-10
0.303, 7.731e-10
0.296, 7.125e-10
0.289, 6.514e-10
0.282, 5.930e-10
0.275, 5.351e-10
0.268, 4.738e-10
0.261, 4.110e-10
0.254, 3.609e-10
0.247, 3.053e-10
0.240, 2.496e-10
0.233, 1.890e-10
0.226, 1.407e-10
0.219, 8.680e-11
0.212, 3.260e-11
0.205, -2.423e-11
0.198, -8.194e-11
0.191, -1.368e-10
0.184, -1.919e-10
0.177, -2.495e-10
0.170, -3.144e-10
0.163, -3.684e-10
0.156, -4.286e-10
0.149, -4.894e-10
0.142, -5.588e-10
0.135, -6.199e-10
0.128, -6.842e-10
0.121, -7.545e-10
0.114, -8.221e-10
0.107, -8.882e-10
0.100, -9.618e-10
0.093, -1.039e-9
0.086, -1.108e-9
0.079, -1.183e-9
0.072, -1.259e-9
0.065, -1.329e-9
0.058, -1.400e-9
0.051, -1.470e-9
0.044, -1.546e-9
0.037, -1.611e-9
0.030, -1.674e-9
0.023, -1.739e-9
0.016, -1.800e-9
0.009, -1.858e-9
0.002, -1.918e-9
-0.005, -1.967e-9
-0.012, -2.022e-9
-0.019, -2.076e-9
-0.026, -2.148e-9
-0.033, -2.247e-9
-0.040, -2.361e-9
-0.047, -2.480e-9
-0.054, -2.582e-9
-0.061, -2.590e-9
-0.068, -2.547e-9
-0.075, -2.461e-9
-0.082, -2.453e-9
-0.089, -2.423e-9
-0.096, -2.443e-9
-0.103, -2.449e-9
-0.110, -2.480e-9
-0.117, -2.499e-9
-0.124, -2.488e-9
-0.131, -2.518e-9
-0.138, -2.524e-9
-0.145, -2.534e-9
-0.152, -2.550e-9
-0.159, -2.572e-9
-0.166, -2.590e-9
-0.173, -2.610e-9
-0.180, -2.627e-9
-0.187, -2.650e-9
-0.194, -2.667e-9
-0.201, -2.691e-9
-0.208, -2.711e-9
-0.215, -2.730e-9
-0.222, -2.751e-9
-0.229, -2.770e-9
-0.236, -2.787e-9
-0.243, -2.809e-9
-0.250, -2.828e-9
-0.257, -2.850e-9
-0.264, -2.867e-9
-0.271, -2.885e-9
-0.278, -2.903e-9
-0.285, -2.918e-9
-0.292, -2.933e-9
-0.299, -2.950e-9
-0.306, -2.965e-9
-0.313, -2.985e-9
-0.320, -2.996e-9
-0.327, -3.007e-9
-0.334, -3.021e-9
-0.341, -3.031e-9
-0.348, -3.042e-9
-0.355, -3.056e-9
-0.362, -3.064e-9
-0.369, -3.077e-9
-0.376, -3.088e-9
-0.383, -3.098e-9
-0.390, -3.110e-9
-0.397, -3.120e-9
-0.404, -3.134e-9
-0.411, -3.145e-9
-0.418, -3.157e-9
-0.425, -3.169e-9
-0.432, -3.184e-9
-0.439, -3.196e-9
-0.446, -3.212e-9
-0.453, -3.228e-9
-0.460, -3.242e-9
-0.467, -3.258e-9
-0.474, -3.273e-9
-0.481, -3.289e-9
-0.488, -3.307e-9
-0.495, -3.324e-9
-0.499, -3.334e-9

File: CV_surface_dark_7.txt
Nov. 20, 2024   15:54:28
Cyclic Voltammetry
File: +12 2319-1 fto cv_cells_dark_surface_7.bin
Data Source:  Experiment
Instrument Model:  CHI920C
Ref. Electrode:
Header:
Note:

Init E (V) = -0.5
High E (V) = 0.5
Low E (V) = -0.5
Init P/N = P
Scan Rate (V/s) = 0.05
Segment = 2
Sample Interval (V) = 0.001
Quiet Time (sec) = 10
Sensitivity (A/V) = 1e-7

Results:

Channel 1:
Segment 1:
Ep = 0.122V
ip = 2.325e-9A
Ah = 5.358e-10C

Segment 2:

Potential/V, Current/A

-0.500, -1.322e-9
-0.493, -1.059e-9
-0.486, -9.361e-10
-0.479, -8.513e-10
-0.472, -7.856e-10
-0.465, -7.158e-10
-0.458, -6.583e-10
-0.451, -6.029e-10
-0.444, -5.551e-10
-0.437, -4.989e-10
-0.430, -4.499e-10
-0.423, -4.024e-10
-0.416, -3.577e-10
-0.409, -3.177e-10
-0.402, -2.698e-10
-0.395, -2.251e-10
-0.388, -1.826e-10
-0.381, -1.413e-10
-0.374, -1.042e-10
-0.367, -6.342e-11
-0.360, -1.829e-11
-0.353, 2.304e-11
-0.346, 6.438e-11
-0.339, 1.021e-10
-0.332, 1.387e-10
-0.325, 1.747e-10
-0.318, 2.138e-10
-0.311, 2.577e-10
-0.304, 2.973e-10
-0.297, 3.361e-10
-0.290, 3.737e-10
-0.283, 4.117e-10
-0.276, 4.549e-10
-0.269, 5.002e-10
-0.262, 5.420e-10
-0.255, 5.803e-10
-0.248, 6.214e-10
-0.241, 6.590e-10
-0.234, 7.010e-10
-0.227, 7.433e-10
-0.220, 7.814e-10
-0.213, 8.221e-10
-0.206, 8.654e-10
-0.199, 9.067e-10
-0.192, 9.490e-10
-0.185, 9.929e-10
-0.178, 1.031e-9
-0.171, 1.070e-9
-0.164, 1.112e-9
-0.157, 1.149e-9
-0.150, 1.192e-9
-0.143, 1.235e-9
-0.136, 1.276e-9
-0.129, 1.315e-9
-0.122, 1.356e-9
-0.115, 1.398e-9
-0.108, 1.440e-9
-0.101, 1.485e-9
-0.094, 1.522e-9
-0.087, 1.562e-9
-0.080, 1.602e-9
-0.073, 1.640e-9
-0.066, 1.683e-9
-0.059, 1.726e-9
-0.052, 1.764e-9
-0.045, 1.805e-9
-0.038, 1.847e-9
-0.031, 1.887e-9
-0.024, 1.930e-9
-0.017, 1.972e-9
-0.010, 2.012e-9
-0.003, 2.054e-9
0.004, 2.091e-9
0.011, 2.131e-9
0.018, 2.175e-9
0.025, 2.221e-9
0.032, 2.264e-9
0.039, 2.309e-9
0.046, 2.353e-9
0.053, 2.395e-9
0.060, 2.443e-9
0.067, 2.487e-9
0.074, 2.538e-9
0.081, 2.585e-9
0.088, 2.636e-9
0.095, 2.700e-9
0.102, 2.795e-9
0.109, 3.144e-9
0.116, 4.191e-9
0.123, 5.040e-9
0.130, 4.239e-9
0.137, 3.450e-9
0.144, 3.099e-9
0.151, 3.046e-9
0.158, 3.039e-9
0.165, 3.048e-9
0.172, 3.065e-9
0.179, 3.083e-9
0.186, 3.100e-9
0.193, 3.122e-9
0.200, 3.146e-9
0.207, 3.164e-9
0.214, 3.186e-9
0.221, 3.207e-9
0.228, 3.225e-9
0.235, 3.244e-9
0.242, 3.263e-9
0.249, 3.280e-9
0.256, 3.297e-9
0.263, 3.315e-9
0.270, 3.331e-9
0.277, 3.350e-9
0.284, 3.369e-9
0.291, 3.393e-9
0.298, 3.416e-9
0.305, 3.440e-9
0.312, 3.469e-9
0.319, 3.493e-9
0.326, 3.519e-9
0.333, 3.546e-9
0.340, 3.573e-9
0.347, 3.601e-9
0.354, 3.634e-9
0.361, 3.670e-9
0.368, 3.705e-9
0.375, 3.741e-9
0.382, 3.775e-9
0.389, 3.809e-9
0.396, 3.842e-9
0.403, 3.881e-9
0.410, 3.913e-9
0.417, 3.961e-9
0.424, 4.000e-9
0.431, 4.040e-9
0.438, 4.080e-9
0.445, 4.128e-9
0.452, 4.177e-9
0.459, 4.225e-9
0.466, 4.270e-9
0.473, 4.316e-9
0.480, 4.368e-9
0.487, 4.418e-9
0.494, 4.472e-9
0.499, 4.328e-9
0.492, 3.825e-9
0.485, 3.523e-9
0.478, 3.283e-9
0.471, 3.077e-9
0.464, 2.902e-9
0.457, 2.747e-9
0.450, 2.597e-9
0.443, 2.470e-9
0.436, 2.347e-9
0.429, 2.232e-9
0.422, 2.122e-9
0.415, 2.024e-9
0.408, 1.934e-9
0.401, 1.836e-9
0.394, 1.745e-9
0.387, 1.658e-9
0.380, 1.578e-9
0.373, 1.496e-9
0.366, 1.418e-9
0.359, 1.341e-9
0.352, 1.267e-9
0.345, 1.195e-9
0.338, 1.125e-9
0.331, 1.061e-9
0.324, 9.961e-10
0.317, 9.303e-10
0.310, 8.647e-10
0.303, 7.993e-10
0.296, 7.404e-10
0.289, 6.763e-10
0.282, 6.202e-10
0.275, 5.614e-10
0.268, 5.023e-10
0.261, 4.348e-10
0.254, 3.820e-10
0.247, 3.277e-10
0.240, 2.741e-10
0.233, 2.164e-10
0.226, 1.601e-10
0.219, 1.088e-10
0.212, 5.385e-11
0.205, 3.901e-14
0.198, -6.430e-11
0.191, -1.173e-10
0.184, -1.734e-10
0.177, -2.296e-10
0.170, -2.948e-10
0.163, -3.524e-10
0.156, -4.127e-10
0.149, -4.754e-10
0.142, -5.458e-10
0.135, -6.087e-10
0.128, -6.763e-10
0.121, -7.446e-10
0.114, -8.159e-10
0.107, -8.822e-10
0.100, -9.577e-10
0.093, -1.037e-9
0.086, -1.106e-9
0.079, -1.179e-9
0.072, -1.258e-9
0.065, -1.329e-9
0.058, -1.400e-9
0.051, -1.471e-9
0.044, -1.546e-9
0.037, -1.611e-9
0.030, -1.675e-9
0.023, -1.741e-9
0.016, -1.801e-9
0.009, -1.860e-9
0.002, -1.915e-9
-0.005, -1.966e-9
-0.012, -2.019e-9
-0.019, -2.074e-9
-0.026, -2.149e-9
-0.033, -2.247e-9
-0.040, -2.361e-9
-0.047, -2.490e-9
-0.054, -2.601e-9
-0.061, -2.611e-9
-0.068, -2.553e-9
-0.075, -2.472e-9
-0.082, -2.431e-9
-0.089, -2.437e-9
-0.096, -2.424e-9
-0.103, -2.419e-9
-0.110, -2.453e-9
-0.117, -2.446e-9
-0.124, -2.466e-9
-0.131, -2.489e-9
-0.138, -2.492e-9
-0.145, -2.511e-9
-0.152, -2.531e-9
-0.159, -2.545e-9
-0.166, -2.567e-9
-0.173, -2.584e-9
-0.180, -2.606e-9
-0.187, -2.623e-9
-0.194, -2.644e-9
-0.201, -2.660e-9
-0.208, -2.679e-9
-0.215, -2.703e-9
-0.222, -2.724e-9
-0.229, -2.747e-9
-0.236, -2.764e-9
-0.243, -2.783e-9
-0.250, -2.801e-9
-0.257, -2.822e-9
-0.264, -2.842e-9
-0.271, -2.858e-9
-0.278, -2.876e-9
-0.285, -2.891e-9
-0.292, -2.906e-9
-0.299, -2.921e-9
-0.306, -2.936e-9
-0.313, -2.953e-9
-0.320, -2.964e-9
-0.327, -2.978e-9
-0.334, -2.988e-9
-0.341, -3.002e-9
-0.348, -3.012e-9
-0.355, -3.023e-9
-0.362, -3.033e-9
-0.369, -3.043e-9
-0.376, -3.055e-9
-0.383, -3.068e-9
-0.390, -3.078e-9
-0.397, -3.089e-9
-0.404, -3.100e-9
-0.411, -3.114e-9
-0.418, -3.127e-9
-0.425, -3.139e-9
-0.432, -3.149e-9
-0.439, -3.164e-9
-0.446, -3.179e-9
-0.453, -3.195e-9
-0.460, -3.214e-9
-0.467, -3.230e-9
-0.474, -3.245e-9
-0.481, -3.259e-9
-0.488, -3.273e-9
-0.495, -3.294e-9
-0.499, -3.305e-9

File: CV_surface_dark_8.txt
Nov. 20, 2024   15:55:30
Cyclic Voltammetry
File: +12 2319-1 fto cv_cells_dark_surface_8.bin
Data Source:  Experiment
Instrument Model:  CHI920C
Ref. Electrode:
Header:
Note:

Init E (V) = -0.5
High E (V) = 0.5
Low E (V) = -0.5
Init P/N = P
Scan Rate (V/s) = 0.05
Segment = 2
Sample Interval (V) = 0.001
Quiet Time (sec) = 10
Sensitivity (A/V) = 1e-7

Results:

Channel 1:
Segment 1:
Ep = 0.121V
ip = 2.449e-9A
Ah = 5.235e-10C

Segment 2:

Potential/V, Current/A

-0.500, -1.294e-9
-0.493, -1.027e-9
-0.486, -9.064e-10
-0.479, -8.216e-10
-0.472, -7.493e-10
-0.465, -6.847e-10
-0.458, -6.280e-10
-0.451, -5.741e-10
-0.444, -5.208e-10
-0.437, -4.651e-10
-0.430, -4.177e-10
-0.423, -3.713e-10
-0.416, -3.303e-10
-0.409, -2.851e-10
-0.402, -2.359e-10
-0.395, -1.951e-10
-0.388, -1.520e-10
-0.381, -1.125e-10
-0.374, -7.317e-11
-0.367, -3.135e-11
-0.360, 1.593e-11
-0.353, 5.385e-11
-0.346, 9.489e-11
-0.339, 1.306e-10
-0.332, 1.649e-10
-0.325, 2.058e-10
-0.318, 2.482e-10
-0.311, 2.877e-10
-0.304, 3.283e-10
-0.297, 3.640e-10
-0.290, 4.004e-10
-0.283, 4.423e-10
-0.276, 4.875e-10
-0.269, 5.303e-10
-0.262, 5.690e-10
-0.255, 6.104e-10
-0.248, 6.485e-10
-0.241, 6.884e-10
-0.234, 7.317e-10
-0.227, 7.703e-10
-0.220, 8.107e-10
-0.213, 8.521e-10
-0.206, 8.940e-10
-0.199, 9.355e-10
-0.192, 9.761e-10
-0.185, 1.016e-9
-0.178, 1.058e-9
-0.171, 1.099e-9
-0.164, 1.135e-9
-0.157, 1.177e-9
-0.150, 1.221e-9
-0.143, 1.262e-9
-0.136, 1.302e-9
-0.129, 1.344e-9
-0.122, 1.386e-9
-0.115, 1.429e-9
-0.108, 1.472e-9
-0.101, 1.515e-9
-0.094, 1.556e-9
-0.087, 1.594e-9
-0.080, 1.633e-9
-0.073, 1.674e-9
-0.066, 1.718e-9
-0.059, 1.756e-9
-0.052, 1.798e-9
-0.045, 1.841e-9
-0.038, 1.880e-9
-0.031, 1.924e-9
-0.024, 1.966e-9
-0.017, 2.005e-9
-0.010, 2.049e-9
-0.003, 2.086e-9
0.004, 2.123e-9
0.011, 2.168e-9
0.018, 2.211e-9
0.025, 2.254e-9
0.032, 2.299e-9
0.039, 2.344e-9
0.046, 2.387e-9
0.053, 2.432e-9
0.060, 2.476e-9
0.067, 2.523e-9
0.074, 2.571e-9
0.081, 2.619e-9
0.088, 2.677e-9
0.095, 2.739e-9
0.102, 2.849e-9
0.109, 3.298e-9
0.116, 4.597e-9
0.123, 5.125e-9
0.130, 4.066e-9
0.137, 3.337e-9
0.144, 3.100e-9
0.151, 3.071e-9
0.158, 3.069e-9
0.165, 3.080e-9
0.172, 3.097e-9
0.179, 3.120e-9
0.186, 3.147e-9
0.193, 3.166e-9
0.200, 3.188e-9
0.207, 3.205e-9
0.214, 3.225e-9
0.221, 3.244e-9
0.228, 3.261e-9
0.235, 3.278e-9
0.242, 3.296e-9
0.249, 3.311e-9
0.256, 3.328e-9
0.263, 3.345e-9
0.270, 3.366e-9
0.277, 3.382e-9
0.284, 3.405e-9
0.291, 3.427e-9
0.298, 3.448e-9
0.305, 3.473e-9
0.312, 3.498e-9
0.319, 3.526e-9
0.326, 3.551e-9
0.333, 3.576e-9
0.340, 3.602e-9
0.347, 3.636e-9
0.354, 3.673e-9
0.361, 3.702e-9
0.368, 3.739e-9
0.375, 3.773e-9
0.382, 3.804e-9
0.389, 3.837e-9
0.396, 3.876e-9
0.403, 3.915e-9
0.410, 3.948e-9
0.417, 3.993e-9
0.424, 4.034e-9
0.431, 4.072e-9
0.438, 4.118e-9
0.445, 4.170e-9
0.452, 4.215e-9
0.459, 4.263e-9
0.466, 4.306e-9
0.473, 4.352e-9
0.480, 4.404e-9
0.487, 4.456e-9
0.494, 4.511e-9
0.499, 4.364e-9
0.492, 3.859e-9
0.485, 3.555e-9
0.478, 3.315e-9
0.471, 3.103e-9
0.464, 2.931e-9
0.457, 2.777e-9
0.450, 2.624e-9
0.443, 2.495e-9
0.436, 2.374e-9
0.429, 2.257e-9
0.422, 2.148e-9
0.415, 2.050e-9
0.408, 1.959e-9
0.401, 1.860e-9
0.394, 1.767e-9
0.387, 1.682e-9
0.380, 1.598e-9
0.373, 1.519e-9
0.366, 1.441e-9
0.359, 1.364e-9
0.352, 1.288e-9
0.345, 1.218e-9
0.338, 1.143e-9
0.331, 1.080e-9
0.324, 1.014e-9
0.317, 9.487e-10
0.310, 8.826e-10
0.303, 8.173e-10
0.296, 7.579e-10
0.289, 6.955e-10
0.282, 6.367e-10
0.275, 5.787e-10
0.268, 5.219e-10
0.261, 4.566e-10
0.254, 3.960e-10
0.247, 3.426e-10
0.240, 2.883e-10
0.233, 2.323e-10
0.226, 1.729e-10
0.219, 1.221e-10
0.212, 6.769e-11
0.205, 1.427e-11
0.198, -4.899e-11
0.191, -1.046e-10
0.184, -1.629e-10
0.177, -2.203e-10
0.170, -2.848e-10
0.163, -3.433e-10
0.156, -4.048e-10
0.149, -4.661e-10
0.142, -5.391e-10
0.135, -6.043e-10
0.128, -6.704e-10
0.121, -7.399e-10
0.114, -8.126e-10
0.107, -8.799e-10
0.100, -9.574e-10
0.093, -1.036e-9
0.086, -1.108e-9
0.079, -1.181e-9
0.072, -1.260e-9
0.065, -1.333e-9
0.058, -1.404e-9
0.051, -1.477e-9
0.044, -1.552e-9
0.037, -1.616e-9
0.030, -1.679e-9
0.023, -1.744e-9
0.016, -1.803e-9
0.009, -1.861e-9
0.002, -1.918e-9
-0.005, -1.965e-9
-0.012, -2.020e-9
-0.019, -2.075e-9
-0.026, -2.162e-9
-0.033, -2.264e-9
-0.040, -2.374e-9
-0.047, -2.469e-9
-0.054, -2.569e-9
-0.061, -2.586e-9
-0.068, -2.547e-9
-0.075, -2.478e-9
-0.082, -2.417e-9
-0.089, -2.416e-9
-0.096, -2.418e-9
-0.103, -2.415e-9
-0.110, -2.426e-9
-0.117, -2.452e-9
-0.124, -2.447e-9
-0.131, -2.469e-9
-0.138, -2.489e-9
-0.145, -2.505e-9
-0.152, -2.521e-9
-0.159, -2.539e-9
-0.166, -2.557e-9
-0.173, -2.576e-9
-0.180, -2.590e-9
-0.187, -2.612e-9
-0.194, -2.628e-9
-0.201, -2.649e-9
-0.208, -2.664e-9
-0.215, -2.685e-9
-0.222, -2.709e-9
-0.229, -2.728e-9
-0.236, -2.754e-9
-0.243, -2.771e-9
-0.250, -2.787e-9
-0.257, -2.806e-9
-0.264, -2.827e-9
-0.271, -2.846e-9
-0.278, -2.863e-9
-0.285, -2.877e-9
-0.292, -2.894e-9
-0.299, -2.908e-9
-0.306, -2.921e-9
-0.313, -2.939e-9
-0.320, -2.949e-9
-0.327, -2.963e-9
-0.334, -2.975e-9
-0.341, -2.987e-9
-0.348, -2.997e-9
-0.355, -3.009e-9
-0.362, -3.017e-9
-0.369, -3.030e-9
-0.376, -3.041e-9
-0.383, -3.050e-9
-0.390, -3.063e-9
-0.397, -3.074e-9
-0.404, -3.089e-9
-0.411, -3.101e-9
-0.418, -3.113e-9
-0.425, -3.125e-9
-0.432, -3.137e-9
-0.439, -3.149e-9
-0.446, -3.165e-9
-0.453, -3.179e-9
-0.460, -3.198e-9
-0.467, -3.216e-9
-0.474, -3.230e-9
-0.481, -3.248e-9
-0.488, -3.259e-9
-0.495, -3.279e-9
-0.499, -3.287e-9